success,timeout,failed_images,failed_audio,failed_video,trial_type,trial_index,time_elapsed,internal_node_id,subject_id,study_id,session_id,view_history,rt,stimulus,response,task,correct_response,attention_duration,correct,retrieval_group
TRUE,FALSE,[],[],[],preload,0,2276,0.0-0.0,14,Study 14,Session 14,NA,NA,NA,NA,NA,NA,NA,NA,NA
TRUE,NA,NA,NA,NA,fullscreen,1,9118,0.0-1.0,14,Study 14,Session 14,NA,NA,NA,NA,NA,NA,NA,NA,NA
NA,NA,NA,NA,NA,instructions,2,14690,0.0-2.0,14,Study 14,Session 14,"[{""page_index"":0,""viewing_time"":5570}]",5571,NA,NA,NA,NA,NA,NA,NA
NA,NA,NA,NA,NA,html-keyboard-response,3,22077,0.0-3.0,14,Study 14,Session 14,NA,7386,"Welcome to the experiment. <br /><br />This experiment will take about 20 minutes. Please complete all in one sitting. <br /><br />For this study, <strong>please use</strong> a laptop or desktop computer (not a mobile phone or tablet). Also, please use either <u>Chrome or Firefox</u>. <br /><br />Once you begin, <strong>DO NOT</strong> refresh the browser, as the experiment will reset and you will lose your progress. <br /><br />Press the <strong class=""upperline"">B</strong> key on your keyboard to begin.",b,NA,NA,NA,NA,NA
NA,NA,NA,NA,NA,instructions,4,39619,0.0-4.0,14,Study 14,Session 14,"[{""page_index"":0,""viewing_time"":4110},{""page_index"":1,""viewing_time"":10671},{""page_index"":2,""viewing_time"":1754}]",16535,NA,NA,NA,NA,NA,NA,NA
NA,NA,NA,NA,NA,html-keyboard-response,5,42623,0.0-5.0-0.0,14,Study 14,Session 14,NA,null,"<div style=""font-size:60px;"">+</div>",null,fixation,NA,NA,NA,NA
NA,NA,NA,NA,NA,image-keyboard-response,6,48643,0.0-5.0-1.0,14,Study 14,Session 14,NA,null,img/encoding_events/Event_1.jpg,null,NA,NA,NA,NA,NA
NA,NA,NA,NA,NA,html-keyboard-response,7,48645,0.0-5.0-2.0,14,Study 14,Session 14,NA,null,Please press the <strong><u>k</u></strong> key to continue,null,response,k,0,FALSE,NA
NA,NA,NA,NA,NA,html-keyboard-response,8,49158,0.0-5.0-0.1,14,Study 14,Session 14,NA,null,"<div style=""font-size:60px;"">+</div>",null,fixation,NA,NA,NA,NA
NA,NA,NA,NA,NA,image-keyboard-response,9,55167,0.0-5.0-1.1,14,Study 14,Session 14,NA,null,img/encoding_events/Event_18.jpg,null,NA,NA,NA,NA,NA
NA,NA,NA,NA,NA,html-keyboard-response,10,55172,0.0-5.0-2.1,14,Study 14,Session 14,NA,null,Please press the <strong><u>k</u></strong> key to continue,null,response,k,0,FALSE,NA
NA,NA,NA,NA,NA,html-keyboard-response,11,55678,0.0-5.0-0.2,14,Study 14,Session 14,NA,null,"<div style=""font-size:60px;"">+</div>",null,fixation,NA,NA,NA,NA
NA,NA,NA,NA,NA,image-keyboard-response,12,61695,0.0-5.0-1.2,14,Study 14,Session 14,NA,null,img/encoding_events/Event_12.jpg,null,NA,NA,NA,NA,NA
NA,NA,NA,NA,NA,html-keyboard-response,13,61700,0.0-5.0-2.2,14,Study 14,Session 14,NA,null,Please press the <strong><u>k</u></strong> key to continue,null,response,k,0,FALSE,NA
NA,NA,NA,NA,NA,html-keyboard-response,14,62212,0.0-5.0-0.3,14,Study 14,Session 14,NA,null,"<div style=""font-size:60px;"">+</div>",null,fixation,NA,NA,NA,NA
NA,NA,NA,NA,NA,image-keyboard-response,15,68230,0.0-5.0-1.3,14,Study 14,Session 14,NA,null,img/encoding_events/Event_8.jpg,null,NA,NA,NA,NA,NA
NA,NA,NA,NA,NA,html-keyboard-response,16,70050,0.0-5.0-2.3,14,Study 14,Session 14,NA,1820,Please press the <strong><u>a</u></strong> key to continue,a,response,a,6000,TRUE,NA
NA,NA,NA,NA,NA,html-keyboard-response,17,70551,0.0-5.0-0.4,14,Study 14,Session 14,NA,null,"<div style=""font-size:60px;"">+</div>",null,fixation,NA,NA,NA,NA
NA,NA,NA,NA,NA,image-keyboard-response,18,76562,0.0-5.0-1.4,14,Study 14,Session 14,NA,null,img/encoding_events/Event_10.jpg,null,NA,NA,NA,NA,NA
NA,NA,NA,NA,NA,html-keyboard-response,19,76564,0.0-5.0-2.4,14,Study 14,Session 14,NA,null,Please press the <strong><u>d</u></strong> key to continue,null,response,d,0,FALSE,NA
NA,NA,NA,NA,NA,html-keyboard-response,20,77074,0.0-5.0-0.5,14,Study 14,Session 14,NA,null,"<div style=""font-size:60px;"">+</div>",null,fixation,NA,NA,NA,NA
NA,NA,NA,NA,NA,image-keyboard-response,21,83080,0.0-5.0-1.5,14,Study 14,Session 14,NA,null,img/encoding_events/Event_4.jpg,null,NA,NA,NA,NA,NA
NA,NA,NA,NA,NA,html-keyboard-response,22,83085,0.0-5.0-2.5,14,Study 14,Session 14,NA,null,Please press the <strong><u>k</u></strong> key to continue,null,response,k,0,FALSE,NA
NA,NA,NA,NA,NA,html-keyboard-response,23,83594,0.0-5.0-0.6,14,Study 14,Session 14,NA,null,"<div style=""font-size:60px;"">+</div>",null,fixation,NA,NA,NA,NA
NA,NA,NA,NA,NA,image-keyboard-response,24,89608,0.0-5.0-1.6,14,Study 14,Session 14,NA,null,img/encoding_events/Event_23.jpg,null,NA,NA,NA,NA,NA
NA,NA,NA,NA,NA,html-keyboard-response,25,89614,0.0-5.0-2.6,14,Study 14,Session 14,NA,null,Please press the <strong><u>d</u></strong> key to continue,null,response,d,0,FALSE,NA
NA,NA,NA,NA,NA,html-keyboard-response,26,90122,0.0-5.0-0.7,14,Study 14,Session 14,NA,null,"<div style=""font-size:60px;"">+</div>",null,fixation,NA,NA,NA,NA
NA,NA,NA,NA,NA,image-keyboard-response,27,96137,0.0-5.0-1.7,14,Study 14,Session 14,NA,null,img/encoding_events/Event_16.jpg,null,NA,NA,NA,NA,NA
NA,NA,NA,NA,NA,html-keyboard-response,28,97664,0.0-5.0-2.7,14,Study 14,Session 14,NA,1527,Please press the <strong><u>f</u></strong> key to continue,f,response,f,6000,TRUE,NA
NA,NA,NA,NA,NA,html-keyboard-response,29,98174,0.0-5.0-0.8,14,Study 14,Session 14,NA,null,"<div style=""font-size:60px;"">+</div>",null,fixation,NA,NA,NA,NA
NA,NA,NA,NA,NA,image-keyboard-response,30,104184,0.0-5.0-1.8,14,Study 14,Session 14,NA,null,img/encoding_events/Event_15.jpg,null,NA,NA,NA,NA,NA
NA,NA,NA,NA,NA,html-keyboard-response,31,104186,0.0-5.0-2.8,14,Study 14,Session 14,NA,null,Please press the <strong><u>a</u></strong> key to continue,null,response,a,0,FALSE,NA
NA,NA,NA,NA,NA,html-keyboard-response,32,104695,0.0-5.0-0.9,14,Study 14,Session 14,NA,null,"<div style=""font-size:60px;"">+</div>",null,fixation,NA,NA,NA,NA
NA,NA,NA,NA,NA,image-keyboard-response,33,110713,0.0-5.0-1.9,14,Study 14,Session 14,NA,null,img/encoding_events/Event_2.jpg,null,NA,NA,NA,NA,NA
NA,NA,NA,NA,NA,html-keyboard-response,34,110718,0.0-5.0-2.9,14,Study 14,Session 14,NA,null,Please press the <strong><u>d</u></strong> key to continue,null,response,d,0,FALSE,NA
NA,NA,NA,NA,NA,html-keyboard-response,35,111231,0.0-5.0-0.10,14,Study 14,Session 14,NA,null,"<div style=""font-size:60px;"">+</div>",null,fixation,NA,NA,NA,NA
NA,NA,NA,NA,NA,image-keyboard-response,36,117248,0.0-5.0-1.10,14,Study 14,Session 14,NA,null,img/encoding_events/Event_9.jpg,null,NA,NA,NA,NA,NA
NA,NA,NA,NA,NA,html-keyboard-response,37,117253,0.0-5.0-2.10,14,Study 14,Session 14,NA,null,Please press the <strong><u>j</u></strong> key to continue,null,response,j,0,FALSE,NA
NA,NA,NA,NA,NA,html-keyboard-response,38,117764,0.0-5.0-0.11,14,Study 14,Session 14,NA,null,"<div style=""font-size:60px;"">+</div>",null,fixation,NA,NA,NA,NA
NA,NA,NA,NA,NA,image-keyboard-response,39,123774,0.0-5.0-1.11,14,Study 14,Session 14,NA,null,img/encoding_events/Event_5.jpg,null,NA,NA,NA,NA,NA
NA,NA,NA,NA,NA,html-keyboard-response,40,125222,0.0-5.0-2.11,14,Study 14,Session 14,NA,1448,Please press the <strong><u>a</u></strong> key to continue,a,response,a,6000,TRUE,NA
NA,NA,NA,NA,NA,html-keyboard-response,41,125724,0.0-5.0-0.12,14,Study 14,Session 14,NA,null,"<div style=""font-size:60px;"">+</div>",null,fixation,NA,NA,NA,NA
NA,NA,NA,NA,NA,image-keyboard-response,42,131732,0.0-5.0-1.12,14,Study 14,Session 14,NA,null,img/encoding_events/Event_7.jpg,null,NA,NA,NA,NA,NA
NA,NA,NA,NA,NA,html-keyboard-response,43,131734,0.0-5.0-2.12,14,Study 14,Session 14,NA,null,Please press the <strong><u>f</u></strong> key to continue,null,response,f,0,FALSE,NA
NA,NA,NA,NA,NA,html-keyboard-response,44,132249,0.0-5.0-0.13,14,Study 14,Session 14,NA,null,"<div style=""font-size:60px;"">+</div>",null,fixation,NA,NA,NA,NA
NA,NA,NA,NA,NA,image-keyboard-response,45,138265,0.0-5.0-1.13,14,Study 14,Session 14,NA,null,img/encoding_events/Event_17.jpg,null,NA,NA,NA,NA,NA
NA,NA,NA,NA,NA,html-keyboard-response,46,138271,0.0-5.0-2.13,14,Study 14,Session 14,NA,null,Please press the <strong><u>j</u></strong> key to continue,null,response,j,0,FALSE,NA
NA,NA,NA,NA,NA,html-keyboard-response,47,138774,0.0-5.0-0.14,14,Study 14,Session 14,NA,null,"<div style=""font-size:60px;"">+</div>",null,fixation,NA,NA,NA,NA
NA,NA,NA,NA,NA,image-keyboard-response,48,144787,0.0-5.0-1.14,14,Study 14,Session 14,NA,null,img/encoding_events/Event_22.jpg,null,NA,NA,NA,NA,NA
NA,NA,NA,NA,NA,html-keyboard-response,49,144793,0.0-5.0-2.14,14,Study 14,Session 14,NA,null,Please press the <strong><u>f</u></strong> key to continue,null,response,f,0,FALSE,NA
NA,NA,NA,NA,NA,html-keyboard-response,50,145300,0.0-5.0-0.15,14,Study 14,Session 14,NA,null,"<div style=""font-size:60px;"">+</div>",null,fixation,NA,NA,NA,NA
NA,NA,NA,NA,NA,image-keyboard-response,51,151307,0.0-5.0-1.15,14,Study 14,Session 14,NA,null,img/encoding_events/Event_13.jpg,null,NA,NA,NA,NA,NA
NA,NA,NA,NA,NA,html-keyboard-response,52,152737,0.0-5.0-2.15,14,Study 14,Session 14,NA,1430,Please press the <strong><u>k</u></strong> key to continue,k,response,k,6000,TRUE,NA
NA,NA,NA,NA,NA,html-keyboard-response,53,153248,0.0-5.0-0.16,14,Study 14,Session 14,NA,null,"<div style=""font-size:60px;"">+</div>",null,fixation,NA,NA,NA,NA
NA,NA,NA,NA,NA,image-keyboard-response,54,159260,0.0-5.0-1.16,14,Study 14,Session 14,NA,null,img/encoding_events/Event_3.jpg,null,NA,NA,NA,NA,NA
NA,NA,NA,NA,NA,html-keyboard-response,55,159262,0.0-5.0-2.16,14,Study 14,Session 14,NA,null,Please press the <strong><u>k</u></strong> key to continue,null,response,k,0,FALSE,NA
NA,NA,NA,NA,NA,html-keyboard-response,56,159777,0.0-5.0-0.17,14,Study 14,Session 14,NA,null,"<div style=""font-size:60px;"">+</div>",null,fixation,NA,NA,NA,NA
NA,NA,NA,NA,NA,image-keyboard-response,57,165782,0.0-5.0-1.17,14,Study 14,Session 14,NA,null,img/encoding_events/Event_21.jpg,null,NA,NA,NA,NA,NA
NA,NA,NA,NA,NA,html-keyboard-response,58,165788,0.0-5.0-2.17,14,Study 14,Session 14,NA,null,Please press the <strong><u>f</u></strong> key to continue,null,response,f,0,FALSE,NA
NA,NA,NA,NA,NA,html-keyboard-response,59,166298,0.0-5.0-0.18,14,Study 14,Session 14,NA,null,"<div style=""font-size:60px;"">+</div>",null,fixation,NA,NA,NA,NA
NA,NA,NA,NA,NA,image-keyboard-response,60,172308,0.0-5.0-1.18,14,Study 14,Session 14,NA,null,img/encoding_events/Event_20.jpg,null,NA,NA,NA,NA,NA
NA,NA,NA,NA,NA,html-keyboard-response,61,172313,0.0-5.0-2.18,14,Study 14,Session 14,NA,null,Please press the <strong><u>a</u></strong> key to continue,null,response,a,0,FALSE,NA
NA,NA,NA,NA,NA,html-keyboard-response,62,172815,0.0-5.0-0.19,14,Study 14,Session 14,NA,null,"<div style=""font-size:60px;"">+</div>",null,fixation,NA,NA,NA,NA
NA,NA,NA,NA,NA,image-keyboard-response,63,178832,0.0-5.0-1.19,14,Study 14,Session 14,NA,null,img/encoding_events/Event_6.jpg,null,NA,NA,NA,NA,NA
NA,NA,NA,NA,NA,html-keyboard-response,64,180396,0.0-5.0-2.19,14,Study 14,Session 14,NA,1563,Please press the <strong><u>j</u></strong> key to continue,j,response,j,6000,TRUE,NA
NA,NA,NA,NA,NA,html-keyboard-response,65,180907,0.0-5.0-0.20,14,Study 14,Session 14,NA,null,"<div style=""font-size:60px;"">+</div>",null,fixation,NA,NA,NA,NA
NA,NA,NA,NA,NA,image-keyboard-response,66,186919,0.0-5.0-1.20,14,Study 14,Session 14,NA,null,img/encoding_events/Event_19.jpg,null,NA,NA,NA,NA,NA
NA,NA,NA,NA,NA,html-keyboard-response,67,186921,0.0-5.0-2.20,14,Study 14,Session 14,NA,null,Please press the <strong><u>j</u></strong> key to continue,null,response,j,0,FALSE,NA
NA,NA,NA,NA,NA,html-keyboard-response,68,187433,0.0-5.0-0.21,14,Study 14,Session 14,NA,null,"<div style=""font-size:60px;"">+</div>",null,fixation,NA,NA,NA,NA
NA,NA,NA,NA,NA,image-keyboard-response,69,193445,0.0-5.0-1.21,14,Study 14,Session 14,NA,null,img/encoding_events/Event_11.jpg,null,NA,NA,NA,NA,NA
NA,NA,NA,NA,NA,html-keyboard-response,70,193450,0.0-5.0-2.21,14,Study 14,Session 14,NA,null,Please press the <strong><u>a</u></strong> key to continue,null,response,a,0,FALSE,NA
NA,NA,NA,NA,NA,html-keyboard-response,71,193960,0.0-5.0-0.22,14,Study 14,Session 14,NA,null,"<div style=""font-size:60px;"">+</div>",null,fixation,NA,NA,NA,NA
NA,NA,NA,NA,NA,image-keyboard-response,72,199970,0.0-5.0-1.22,14,Study 14,Session 14,NA,null,img/encoding_events/Event_14.jpg,null,NA,NA,NA,NA,NA
NA,NA,NA,NA,NA,html-keyboard-response,73,199974,0.0-5.0-2.22,14,Study 14,Session 14,NA,null,Please press the <strong><u>f</u></strong> key to continue,null,response,f,0,FALSE,NA
NA,NA,NA,NA,NA,html-keyboard-response,74,200485,0.0-5.0-0.23,14,Study 14,Session 14,NA,null,"<div style=""font-size:60px;"">+</div>",null,fixation,NA,NA,NA,NA
NA,NA,NA,NA,NA,image-keyboard-response,75,206493,0.0-5.0-1.23,14,Study 14,Session 14,NA,null,img/encoding_events/Event_24.jpg,null,NA,NA,NA,NA,NA
NA,NA,NA,NA,NA,html-keyboard-response,76,207627,0.0-5.0-2.23,14,Study 14,Session 14,NA,1134,Please press the <strong><u>j</u></strong> key to continue,j,response,j,6000,TRUE,NA
NA,NA,NA,NA,NA,instructions,77,253946,0.0-6.0,14,Study 14,Session 14,"[{""page_index"":0,""viewing_time"":2583},{""page_index"":1,""viewing_time"":4001},{""page_index"":2,""viewing_time"":3549},{""page_index"":3,""viewing_time"":11803},{""page_index"":4,""viewing_time"":11238},{""page_index"":5,""viewing_time"":10749},{""page_index"":6,""viewing_time"":2396}]",46319,NA,NA,NA,NA,NA,NA,NA
NA,NA,NA,NA,NA,image-keyboard-response,78,259940,0.0-7.0-0.0-0.0,14,Study 14,Session 14,NA,3483,img/testing_events/Cb/Test_Cb_Event_20.jpg,e,response,e,NA,TRUE,Cb
NA,NA,NA,NA,NA,image-keyboard-response,79,262698,0.0-7.0-0.0-0.1,14,Study 14,Session 14,NA,2758,img/testing_events/Cb/Test_Cb_Event_24.jpg,e,response,e,NA,TRUE,Cb
NA,NA,NA,NA,NA,image-keyboard-response,80,266861,0.0-7.0-0.0-0.2,14,Study 14,Session 14,NA,4162,img/testing_events/Cb/Test_Cb_Event_19.jpg,n,response,n,NA,TRUE,Cb
NA,NA,NA,NA,NA,image-keyboard-response,81,273730,0.0-7.0-0.0-0.3,14,Study 14,Session 14,NA,6869,img/testing_events/Cb/Test_Cb_Event_13.jpg,u,response,u,NA,TRUE,Cb
NA,NA,NA,NA,NA,image-keyboard-response,82,275309,0.0-7.0-0.0-0.4,14,Study 14,Session 14,NA,1579,img/testing_events/Cb/Test_Cb_Event_8.jpg,e,response,e,NA,TRUE,Cb
NA,NA,NA,NA,NA,image-keyboard-response,83,279674,0.0-7.0-0.0-0.5,14,Study 14,Session 14,NA,4365,img/testing_events/Cb/Test_Cb_Event_1.jpg,u,response,u,NA,TRUE,Cb
NA,NA,NA,NA,NA,image-keyboard-response,84,283608,0.0-7.0-0.0-0.6,14,Study 14,Session 14,NA,3934,img/testing_events/Cb/Test_Cb_Event_11.jpg,n,response,n,NA,TRUE,Cb
NA,NA,NA,NA,NA,image-keyboard-response,85,285758,0.0-7.0-0.0-0.7,14,Study 14,Session 14,NA,2149,img/testing_events/Cb/Test_Cb_Event_5.jpg,u,response,u,NA,TRUE,Cb
NA,NA,NA,NA,NA,image-keyboard-response,86,291364,0.0-7.0-0.0-0.8,14,Study 14,Session 14,NA,5606,img/testing_events/Cb/Test_Cb_Event_3.jpg,n,response,n,NA,TRUE,Cb
NA,NA,NA,NA,NA,image-keyboard-response,87,297691,0.0-7.0-0.0-0.9,14,Study 14,Session 14,NA,6327,img/testing_events/Cb/Test_Cb_Event_12.jpg,e,response,e,NA,TRUE,Cb
NA,NA,NA,NA,NA,image-keyboard-response,88,301286,0.0-7.0-0.0-0.10,14,Study 14,Session 14,NA,3594,img/testing_events/Cb/Test_Cb_Event_17.jpg,u,response,u,NA,TRUE,Cb
NA,NA,NA,NA,NA,image-keyboard-response,89,305483,0.0-7.0-0.0-0.11,14,Study 14,Session 14,NA,4196,img/testing_events/Cb/Test_Cb_Event_4.jpg,n,response,e,NA,FALSE,Cb
NA,NA,NA,NA,NA,image-keyboard-response,90,311169,0.0-7.0-0.0-0.12,14,Study 14,Session 14,NA,5685,img/testing_events/Cb/Test_Cb_Event_23.jpg,n,response,n,NA,TRUE,Cb
NA,NA,NA,NA,NA,image-keyboard-response,91,314249,0.0-7.0-0.0-0.13,14,Study 14,Session 14,NA,3080,img/testing_events/Cb/Test_Cb_Event_16.jpg,e,response,e,NA,TRUE,Cb
NA,NA,NA,NA,NA,image-keyboard-response,92,317450,0.0-7.0-0.0-0.14,14,Study 14,Session 14,NA,3201,img/testing_events/Cb/Test_Cb_Event_10.jpg,c,response,c,NA,TRUE,Cb
NA,NA,NA,NA,NA,image-keyboard-response,93,319467,0.0-7.0-0.0-0.15,14,Study 14,Session 14,NA,2016,img/testing_events/Cb/Test_Cb_Event_2.jpg,c,response,c,NA,TRUE,Cb
NA,NA,NA,NA,NA,image-keyboard-response,94,324675,0.0-7.0-0.0-0.16,14,Study 14,Session 14,NA,5208,img/testing_events/Cb/Test_Cb_Event_7.jpg,n,response,n,NA,TRUE,Cb
NA,NA,NA,NA,NA,image-keyboard-response,95,327756,0.0-7.0-0.0-0.17,14,Study 14,Session 14,NA,3080,img/testing_events/Cb/Test_Cb_Event_14.jpg,c,response,c,NA,TRUE,Cb
NA,NA,NA,NA,NA,image-keyboard-response,96,329235,0.0-7.0-0.0-0.18,14,Study 14,Session 14,NA,1479,img/testing_events/Cb/Test_Cb_Event_15.jpg,n,response,n,NA,TRUE,Cb
NA,NA,NA,NA,NA,image-keyboard-response,97,338062,0.0-7.0-0.0-0.19,14,Study 14,Session 14,NA,8827,img/testing_events/Cb/Test_Cb_Event_6.jpg,c,response,c,NA,TRUE,Cb
NA,NA,NA,NA,NA,image-keyboard-response,98,343409,0.0-7.0-0.0-0.20,14,Study 14,Session 14,NA,5346,img/testing_events/Cb/Test_Cb_Event_18.jpg,e,response,c,NA,FALSE,Cb
NA,NA,NA,NA,NA,image-keyboard-response,99,347223,0.0-7.0-0.0-0.21,14,Study 14,Session 14,NA,3814,img/testing_events/Cb/Test_Cb_Event_9.jpg,u,response,u,NA,TRUE,Cb
NA,NA,NA,NA,NA,image-keyboard-response,100,351415,0.0-7.0-0.0-0.22,14,Study 14,Session 14,NA,4192,img/testing_events/Cb/Test_Cb_Event_21.jpg,u,response,u,NA,TRUE,Cb
NA,NA,NA,NA,NA,image-keyboard-response,101,356025,0.0-7.0-0.0-0.23,14,Study 14,Session 14,NA,4609,img/testing_events/Cb/Test_Cb_Event_22.jpg,c,response,c,NA,TRUE,Cb
NA,NA,NA,NA,NA,image-keyboard-response,102,362319,0.0-7.0-1.0-0.0,14,Study 14,Session 14,NA,6293,img/testing_events/Ab/Test_Ab_Event_10.jpg,u,response,u,NA,TRUE,Ab
NA,NA,NA,NA,NA,image-keyboard-response,103,368048,0.0-7.0-1.0-0.1,14,Study 14,Session 14,NA,5729,img/testing_events/Ab/Test_Ab_Event_12.jpg,n,response,n,NA,TRUE,Ab
NA,NA,NA,NA,NA,image-keyboard-response,104,371405,0.0-7.0-1.0-0.2,14,Study 14,Session 14,NA,3356,img/testing_events/Ab/Test_Ab_Event_14.jpg,u,response,u,NA,TRUE,Ab
NA,NA,NA,NA,NA,image-keyboard-response,105,375662,0.0-7.0-1.0-0.3,14,Study 14,Session 14,NA,4255,img/testing_events/Ab/Test_Ab_Event_19.jpg,c,response,c,NA,TRUE,Ab
NA,NA,NA,NA,NA,image-keyboard-response,106,378150,0.0-7.0-1.0-0.4,14,Study 14,Session 14,NA,2488,img/testing_events/Ab/Test_Ab_Event_5.jpg,e,response,e,NA,TRUE,Ab
NA,NA,NA,NA,NA,image-keyboard-response,107,384180,0.0-7.0-1.0-0.5,14,Study 14,Session 14,NA,6029,img/testing_events/Ab/Test_Ab_Event_8.jpg,n,response,n,NA,TRUE,Ab
NA,NA,NA,NA,NA,image-keyboard-response,108,388676,0.0-7.0-1.0-0.6,14,Study 14,Session 14,NA,4495,img/testing_events/Ab/Test_Ab_Event_18.jpg,u,response,u,NA,TRUE,Ab
NA,NA,NA,NA,NA,image-keyboard-response,109,390976,0.0-7.0-1.0-0.7,14,Study 14,Session 14,NA,2299,img/testing_events/Ab/Test_Ab_Event_24.jpg,n,response,n,NA,TRUE,Ab
NA,NA,NA,NA,NA,image-keyboard-response,110,392599,0.0-7.0-1.0-0.8,14,Study 14,Session 14,NA,1623,img/testing_events/Ab/Test_Ab_Event_20.jpg,n,response,n,NA,TRUE,Ab
NA,NA,NA,NA,NA,image-keyboard-response,111,398414,0.0-7.0-1.0-0.9,14,Study 14,Session 14,NA,5815,img/testing_events/Ab/Test_Ab_Event_6.jpg,u,response,u,NA,TRUE,Ab
NA,NA,NA,NA,NA,image-keyboard-response,112,399912,0.0-7.0-1.0-0.10,14,Study 14,Session 14,NA,1498,img/testing_events/Ab/Test_Ab_Event_21.jpg,e,response,e,NA,TRUE,Ab
NA,NA,NA,NA,NA,image-keyboard-response,113,401052,0.0-7.0-1.0-0.11,14,Study 14,Session 14,NA,1139,img/testing_events/Ab/Test_Ab_Event_17.jpg,e,response,e,NA,TRUE,Ab
NA,NA,NA,NA,NA,image-keyboard-response,114,403039,0.0-7.0-1.0-0.12,14,Study 14,Session 14,NA,1987,img/testing_events/Ab/Test_Ab_Event_16.jpg,n,response,n,NA,TRUE,Ab
NA,NA,NA,NA,NA,image-keyboard-response,115,407997,0.0-7.0-1.0-0.13,14,Study 14,Session 14,NA,4958,img/testing_events/Ab/Test_Ab_Event_22.jpg,c,response,u,NA,FALSE,Ab
NA,NA,NA,NA,NA,image-keyboard-response,116,412413,0.0-7.0-1.0-0.14,14,Study 14,Session 14,NA,4416,img/testing_events/Ab/Test_Ab_Event_1.jpg,e,response,e,NA,TRUE,Ab
NA,NA,NA,NA,NA,image-keyboard-response,117,414534,0.0-7.0-1.0-0.15,14,Study 14,Session 14,NA,2120,img/testing_events/Ab/Test_Ab_Event_15.jpg,c,response,c,NA,TRUE,Ab
NA,NA,NA,NA,NA,image-keyboard-response,118,416262,0.0-7.0-1.0-0.16,14,Study 14,Session 14,NA,1728,img/testing_events/Ab/Test_Ab_Event_9.jpg,e,response,e,NA,TRUE,Ab
NA,NA,NA,NA,NA,image-keyboard-response,119,419209,0.0-7.0-1.0-0.17,14,Study 14,Session 14,NA,2946,img/testing_events/Ab/Test_Ab_Event_4.jpg,n,response,n,NA,TRUE,Ab
NA,NA,NA,NA,NA,image-keyboard-response,120,421021,0.0-7.0-1.0-0.18,14,Study 14,Session 14,NA,1812,img/testing_events/Ab/Test_Ab_Event_3.jpg,c,response,c,NA,TRUE,Ab
NA,NA,NA,NA,NA,image-keyboard-response,121,424631,0.0-7.0-1.0-0.19,14,Study 14,Session 14,NA,3609,img/testing_events/Ab/Test_Ab_Event_23.jpg,c,response,c,NA,TRUE,Ab
NA,NA,NA,NA,NA,image-keyboard-response,122,427881,0.0-7.0-1.0-0.20,14,Study 14,Session 14,NA,3250,img/testing_events/Ab/Test_Ab_Event_13.jpg,e,response,e,NA,TRUE,Ab
NA,NA,NA,NA,NA,image-keyboard-response,123,431880,0.0-7.0-1.0-0.21,14,Study 14,Session 14,NA,3998,img/testing_events/Ab/Test_Ab_Event_11.jpg,c,response,c,NA,TRUE,Ab
NA,NA,NA,NA,NA,image-keyboard-response,124,434126,0.0-7.0-1.0-0.22,14,Study 14,Session 14,NA,2245,img/testing_events/Ab/Test_Ab_Event_2.jpg,u,response,u,NA,TRUE,Ab
NA,NA,NA,NA,NA,image-keyboard-response,125,437855,0.0-7.0-1.0-0.23,14,Study 14,Session 14,NA,3728,img/testing_events/Ab/Test_Ab_Event_7.jpg,c,response,c,NA,TRUE,Ab
NA,NA,NA,NA,NA,image-keyboard-response,126,439607,0.0-7.0-2.0-0.0,14,Study 14,Session 14,NA,1752,img/testing_events/Ba/Test_Ba_Event_3.jpg,e,response,e,NA,TRUE,Ba
NA,NA,NA,NA,NA,image-keyboard-response,127,441648,0.0-7.0-2.0-0.1,14,Study 14,Session 14,NA,2041,img/testing_events/Ba/Test_Ba_Event_20.jpg,u,response,u,NA,TRUE,Ba
NA,NA,NA,NA,NA,image-keyboard-response,128,444525,0.0-7.0-2.0-0.2,14,Study 14,Session 14,NA,2876,img/testing_events/Ba/Test_Ba_Event_15.jpg,e,response,e,NA,TRUE,Ba
NA,NA,NA,NA,NA,image-keyboard-response,129,448868,0.0-7.0-2.0-0.3,14,Study 14,Session 14,NA,4342,img/testing_events/Ba/Test_Ba_Event_22.jpg,n,response,n,NA,TRUE,Ba
NA,NA,NA,NA,NA,image-keyboard-response,130,451218,0.0-7.0-2.0-0.4,14,Study 14,Session 14,NA,2350,img/testing_events/Ba/Test_Ba_Event_24.jpg,u,response,u,NA,TRUE,Ba
NA,NA,NA,NA,NA,image-keyboard-response,131,454225,0.0-7.0-2.0-0.5,14,Study 14,Session 14,NA,3007,img/testing_events/Ba/Test_Ba_Event_14.jpg,n,response,n,NA,TRUE,Ba
NA,NA,NA,NA,NA,image-keyboard-response,132,457052,0.0-7.0-2.0-0.6,14,Study 14,Session 14,NA,2827,img/testing_events/Ba/Test_Ba_Event_13.jpg,c,response,c,NA,TRUE,Ba
NA,NA,NA,NA,NA,image-keyboard-response,133,458646,0.0-7.0-2.0-0.7,14,Study 14,Session 14,NA,1593,img/testing_events/Ba/Test_Ba_Event_23.jpg,e,response,e,NA,TRUE,Ba
NA,NA,NA,NA,NA,image-keyboard-response,134,463645,0.0-7.0-2.0-0.8,14,Study 14,Session 14,NA,4999,img/testing_events/Ba/Test_Ba_Event_6.jpg,n,response,n,NA,TRUE,Ba
NA,NA,NA,NA,NA,image-keyboard-response,135,466124,0.0-7.0-2.0-0.9,14,Study 14,Session 14,NA,2478,img/testing_events/Ba/Test_Ba_Event_4.jpg,u,response,u,NA,TRUE,Ba
NA,NA,NA,NA,NA,image-keyboard-response,136,467817,0.0-7.0-2.0-0.10,14,Study 14,Session 14,NA,1692,img/testing_events/Ba/Test_Ba_Event_5.jpg,c,response,c,NA,TRUE,Ba
NA,NA,NA,NA,NA,image-keyboard-response,137,472352,0.0-7.0-2.0-0.11,14,Study 14,Session 14,NA,4535,img/testing_events/Ba/Test_Ba_Event_11.jpg,e,response,e,NA,TRUE,Ba
NA,NA,NA,NA,NA,image-keyboard-response,138,474469,0.0-7.0-2.0-0.12,14,Study 14,Session 14,NA,2116,img/testing_events/Ba/Test_Ba_Event_16.jpg,u,response,u,NA,TRUE,Ba
NA,NA,NA,NA,NA,image-keyboard-response,139,477311,0.0-7.0-2.0-0.13,14,Study 14,Session 14,NA,2842,img/testing_events/Ba/Test_Ba_Event_1.jpg,c,response,c,NA,TRUE,Ba
NA,NA,NA,NA,NA,image-keyboard-response,140,480050,0.0-7.0-2.0-0.14,14,Study 14,Session 14,NA,2739,img/testing_events/Ba/Test_Ba_Event_12.jpg,u,response,u,NA,TRUE,Ba
NA,NA,NA,NA,NA,image-keyboard-response,141,483809,0.0-7.0-2.0-0.15,14,Study 14,Session 14,NA,3759,img/testing_events/Ba/Test_Ba_Event_10.jpg,n,response,n,NA,TRUE,Ba
NA,NA,NA,NA,NA,image-keyboard-response,142,486294,0.0-7.0-2.0-0.16,14,Study 14,Session 14,NA,2485,img/testing_events/Ba/Test_Ba_Event_2.jpg,n,response,n,NA,TRUE,Ba
NA,NA,NA,NA,NA,image-keyboard-response,143,488379,0.0-7.0-2.0-0.17,14,Study 14,Session 14,NA,2084,img/testing_events/Ba/Test_Ba_Event_21.jpg,c,response,c,NA,TRUE,Ba
NA,NA,NA,NA,NA,image-keyboard-response,144,490002,0.0-7.0-2.0-0.18,14,Study 14,Session 14,NA,1623,img/testing_events/Ba/Test_Ba_Event_17.jpg,c,response,c,NA,TRUE,Ba
NA,NA,NA,NA,NA,image-keyboard-response,145,491172,0.0-7.0-2.0-0.19,14,Study 14,Session 14,NA,1169,img/testing_events/Ba/Test_Ba_Event_19.jpg,e,response,e,NA,TRUE,Ba
NA,NA,NA,NA,NA,image-keyboard-response,146,494215,0.0-7.0-2.0-0.20,14,Study 14,Session 14,NA,3043,img/testing_events/Ba/Test_Ba_Event_18.jpg,n,response,n,NA,TRUE,Ba
NA,NA,NA,NA,NA,image-keyboard-response,147,500039,0.0-7.0-2.0-0.21,14,Study 14,Session 14,NA,5825,img/testing_events/Ba/Test_Ba_Event_9.jpg,c,response,c,NA,TRUE,Ba
NA,NA,NA,NA,NA,image-keyboard-response,148,502698,0.0-7.0-2.0-0.22,14,Study 14,Session 14,NA,2658,img/testing_events/Ba/Test_Ba_Event_8.jpg,u,response,u,NA,TRUE,Ba
NA,NA,NA,NA,NA,image-keyboard-response,149,504784,0.0-7.0-2.0-0.23,14,Study 14,Session 14,NA,2085,img/testing_events/Ba/Test_Ba_Event_7.jpg,e,response,e,NA,TRUE,Ba
NA,NA,NA,NA,NA,image-keyboard-response,150,508140,0.0-7.0-3.0-0.0,14,Study 14,Session 14,NA,3355,img/testing_events/Bc/Test_Bc_Event_17.jpg,n,response,n,NA,TRUE,Bc
NA,NA,NA,NA,NA,image-keyboard-response,151,510843,0.0-7.0-3.0-0.1,14,Study 14,Session 14,NA,2703,img/testing_events/Bc/Test_Bc_Event_21.jpg,n,response,n,NA,TRUE,Bc
NA,NA,NA,NA,NA,image-keyboard-response,152,512740,0.0-7.0-3.0-0.2,14,Study 14,Session 14,NA,1896,img/testing_events/Bc/Test_Bc_Event_19.jpg,u,response,u,NA,TRUE,Bc
NA,NA,NA,NA,NA,image-keyboard-response,153,515165,0.0-7.0-3.0-0.3,14,Study 14,Session 14,NA,2424,img/testing_events/Bc/Test_Bc_Event_2.jpg,e,response,e,NA,TRUE,Bc
NA,NA,NA,NA,NA,image-keyboard-response,154,519427,0.0-7.0-3.0-0.4,14,Study 14,Session 14,NA,4262,img/testing_events/Bc/Test_Bc_Event_7.jpg,u,response,u,NA,TRUE,Bc
NA,NA,NA,NA,NA,image-keyboard-response,155,523967,0.0-7.0-3.0-0.5,14,Study 14,Session 14,NA,4540,img/testing_events/Bc/Test_Bc_Event_16.jpg,c,response,c,NA,TRUE,Bc
NA,NA,NA,NA,NA,image-keyboard-response,156,525994,0.0-7.0-3.0-0.6,14,Study 14,Session 14,NA,2026,img/testing_events/Bc/Test_Bc_Event_23.jpg,u,response,u,NA,TRUE,Bc
NA,NA,NA,NA,NA,image-keyboard-response,157,529708,0.0-7.0-3.0-0.7,14,Study 14,Session 14,NA,3714,img/testing_events/Bc/Test_Bc_Event_13.jpg,n,response,n,NA,TRUE,Bc
NA,NA,NA,NA,NA,image-keyboard-response,158,534404,0.0-7.0-3.0-0.8,14,Study 14,Session 14,NA,4696,img/testing_events/Bc/Test_Bc_Event_1.jpg,n,response,n,NA,TRUE,Bc
NA,NA,NA,NA,NA,image-keyboard-response,159,535793,0.0-7.0-3.0-0.9,14,Study 14,Session 14,NA,1388,img/testing_events/Bc/Test_Bc_Event_15.jpg,u,response,u,NA,TRUE,Bc
NA,NA,NA,NA,NA,image-keyboard-response,160,540224,0.0-7.0-3.0-0.10,14,Study 14,Session 14,NA,4431,img/testing_events/Bc/Test_Bc_Event_12.jpg,c,response,c,NA,TRUE,Bc
NA,NA,NA,NA,NA,image-keyboard-response,161,542504,0.0-7.0-3.0-0.11,14,Study 14,Session 14,NA,2280,img/testing_events/Bc/Test_Bc_Event_20.jpg,c,response,c,NA,TRUE,Bc
NA,NA,NA,NA,NA,image-keyboard-response,162,546288,0.0-7.0-3.0-0.12,14,Study 14,Session 14,NA,3784,img/testing_events/Bc/Test_Bc_Event_10.jpg,e,response,e,NA,TRUE,Bc
NA,NA,NA,NA,NA,image-keyboard-response,163,548080,0.0-7.0-3.0-0.13,14,Study 14,Session 14,NA,1792,img/testing_events/Bc/Test_Bc_Event_24.jpg,e,response,c,NA,FALSE,Bc
NA,NA,NA,NA,NA,image-keyboard-response,164,551794,0.0-7.0-3.0-0.14,14,Study 14,Session 14,NA,3713,img/testing_events/Bc/Test_Bc_Event_3.jpg,u,response,u,NA,TRUE,Bc
NA,NA,NA,NA,NA,image-keyboard-response,165,553801,0.0-7.0-3.0-0.15,14,Study 14,Session 14,NA,2007,img/testing_events/Bc/Test_Bc_Event_5.jpg,n,response,n,NA,TRUE,Bc
NA,NA,NA,NA,NA,image-keyboard-response,166,558457,0.0-7.0-3.0-0.16,14,Study 14,Session 14,NA,4655,img/testing_events/Bc/Test_Bc_Event_14.jpg,u,response,e,NA,FALSE,Bc
NA,NA,NA,NA,NA,image-keyboard-response,167,561787,0.0-7.0-3.0-0.17,14,Study 14,Session 14,NA,3330,img/testing_events/Bc/Test_Bc_Event_22.jpg,c,response,e,NA,FALSE,Bc
NA,NA,NA,NA,NA,image-keyboard-response,168,566587,0.0-7.0-3.0-0.18,14,Study 14,Session 14,NA,4800,img/testing_events/Bc/Test_Bc_Event_8.jpg,c,response,c,NA,TRUE,Bc
NA,NA,NA,NA,NA,image-keyboard-response,169,570525,0.0-7.0-3.0-0.19,14,Study 14,Session 14,NA,3938,img/testing_events/Bc/Test_Bc_Event_11.jpg,u,response,u,NA,TRUE,Bc
NA,NA,NA,NA,NA,image-keyboard-response,170,573049,0.0-7.0-3.0-0.20,14,Study 14,Session 14,NA,2523,img/testing_events/Bc/Test_Bc_Event_9.jpg,n,response,n,NA,TRUE,Bc
NA,NA,NA,NA,NA,image-keyboard-response,171,576495,0.0-7.0-3.0-0.21,14,Study 14,Session 14,NA,3445,img/testing_events/Bc/Test_Bc_Event_4.jpg,c,response,c,NA,TRUE,Bc
NA,NA,NA,NA,NA,image-keyboard-response,172,580134,0.0-7.0-3.0-0.22,14,Study 14,Session 14,NA,3639,img/testing_events/Bc/Test_Bc_Event_6.jpg,n,response,e,NA,FALSE,Bc
NA,NA,NA,NA,NA,image-keyboard-response,173,583396,0.0-7.0-3.0-0.23,14,Study 14,Session 14,NA,3261,img/testing_events/Bc/Test_Bc_Event_18.jpg,e,response,e,NA,TRUE,Bc
NA,NA,NA,NA,NA,image-keyboard-response,174,590690,0.0-7.0-4.0-0.0,14,Study 14,Session 14,NA,7294,img/testing_events/Ca/Test_Ca_Event_6.jpg,u,response,u,NA,TRUE,Ca
NA,NA,NA,NA,NA,image-keyboard-response,175,597506,0.0-7.0-4.0-0.1,14,Study 14,Session 14,NA,6816,img/testing_events/Ca/Test_Ca_Event_16.jpg,n,response,n,NA,TRUE,Ca
NA,NA,NA,NA,NA,image-keyboard-response,176,601100,0.0-7.0-4.0-0.2,14,Study 14,Session 14,NA,3593,img/testing_events/Ca/Test_Ca_Event_18.jpg,e,response,u,NA,FALSE,Ca
NA,NA,NA,NA,NA,image-keyboard-response,177,605133,0.0-7.0-4.0-0.3,14,Study 14,Session 14,NA,4033,img/testing_events/Ca/Test_Ca_Event_4.jpg,c,response,n,NA,FALSE,Ca
NA,NA,NA,NA,NA,image-keyboard-response,178,607891,0.0-7.0-4.0-0.4,14,Study 14,Session 14,NA,2757,img/testing_events/Ca/Test_Ca_Event_21.jpg,e,response,e,NA,TRUE,Ca
NA,NA,NA,NA,NA,image-keyboard-response,179,610680,0.0-7.0-4.0-0.5,14,Study 14,Session 14,NA,2788,img/testing_events/Ca/Test_Ca_Event_8.jpg,n,response,n,NA,TRUE,Ca
NA,NA,NA,NA,NA,image-keyboard-response,180,615051,0.0-7.0-4.0-0.6,14,Study 14,Session 14,NA,4371,img/testing_events/Ca/Test_Ca_Event_2.jpg,u,response,u,NA,TRUE,Ca
NA,NA,NA,NA,NA,image-keyboard-response,181,618955,0.0-7.0-4.0-0.7,14,Study 14,Session 14,NA,3903,img/testing_events/Ca/Test_Ca_Event_14.jpg,n,response,u,NA,FALSE,Ca
NA,NA,NA,NA,NA,image-keyboard-response,182,623181,0.0-7.0-4.0-0.8,14,Study 14,Session 14,NA,4226,img/testing_events/Ca/Test_Ca_Event_11.jpg,c,response,c,NA,TRUE,Ca
NA,NA,NA,NA,NA,image-keyboard-response,183,624461,0.0-7.0-4.0-0.9,14,Study 14,Session 14,NA,1279,img/testing_events/Ca/Test_Ca_Event_9.jpg,e,response,e,NA,TRUE,Ca
NA,NA,NA,NA,NA,image-keyboard-response,184,626452,0.0-7.0-4.0-0.10,14,Study 14,Session 14,NA,1991,img/testing_events/Ca/Test_Ca_Event_5.jpg,e,response,e,NA,TRUE,Ca
NA,NA,NA,NA,NA,image-keyboard-response,185,628469,0.0-7.0-4.0-0.11,14,Study 14,Session 14,NA,2016,img/testing_events/Ca/Test_Ca_Event_15.jpg,c,response,c,NA,TRUE,Ca
NA,NA,NA,NA,NA,image-keyboard-response,186,630331,0.0-7.0-4.0-0.12,14,Study 14,Session 14,NA,1862,img/testing_events/Ca/Test_Ca_Event_20.jpg,n,response,n,NA,TRUE,Ca
NA,NA,NA,NA,NA,image-keyboard-response,187,635454,0.0-7.0-4.0-0.13,14,Study 14,Session 14,NA,5123,img/testing_events/Ca/Test_Ca_Event_10.jpg,n,response,u,NA,FALSE,Ca
NA,NA,NA,NA,NA,image-keyboard-response,188,639876,0.0-7.0-4.0-0.14,14,Study 14,Session 14,NA,4421,img/testing_events/Ca/Test_Ca_Event_12.jpg,n,response,n,NA,TRUE,Ca
NA,NA,NA,NA,NA,image-keyboard-response,189,644765,0.0-7.0-4.0-0.15,14,Study 14,Session 14,NA,4889,img/testing_events/Ca/Test_Ca_Event_13.jpg,u,response,e,NA,FALSE,Ca
NA,NA,NA,NA,NA,image-keyboard-response,190,647016,0.0-7.0-4.0-0.16,14,Study 14,Session 14,NA,2250,img/testing_events/Ca/Test_Ca_Event_23.jpg,c,response,c,NA,TRUE,Ca
NA,NA,NA,NA,NA,image-keyboard-response,191,649401,0.0-7.0-4.0-0.17,14,Study 14,Session 14,NA,2385,img/testing_events/Ca/Test_Ca_Event_19.jpg,c,response,c,NA,TRUE,Ca
NA,NA,NA,NA,NA,image-keyboard-response,192,650689,0.0-7.0-4.0-0.18,14,Study 14,Session 14,NA,1288,img/testing_events/Ca/Test_Ca_Event_17.jpg,e,response,e,NA,TRUE,Ca
NA,NA,NA,NA,NA,image-keyboard-response,193,653404,0.0-7.0-4.0-0.19,14,Study 14,Session 14,NA,2714,img/testing_events/Ca/Test_Ca_Event_7.jpg,u,response,c,NA,FALSE,Ca
NA,NA,NA,NA,NA,image-keyboard-response,194,656455,0.0-7.0-4.0-0.20,14,Study 14,Session 14,NA,3051,img/testing_events/Ca/Test_Ca_Event_1.jpg,e,response,e,NA,TRUE,Ca
NA,NA,NA,NA,NA,image-keyboard-response,195,660035,0.0-7.0-4.0-0.21,14,Study 14,Session 14,NA,3579,img/testing_events/Ca/Test_Ca_Event_3.jpg,c,response,c,NA,TRUE,Ca
NA,NA,NA,NA,NA,image-keyboard-response,196,663898,0.0-7.0-4.0-0.22,14,Study 14,Session 14,NA,3863,img/testing_events/Ca/Test_Ca_Event_24.jpg,u,response,n,NA,FALSE,Ca
NA,NA,NA,NA,NA,image-keyboard-response,197,666966,0.0-7.0-4.0-0.23,14,Study 14,Session 14,NA,3068,img/testing_events/Ca/Test_Ca_Event_22.jpg,u,response,u,NA,TRUE,Ca
NA,NA,NA,NA,NA,image-keyboard-response,198,673054,0.0-7.0-5.0-0.0,14,Study 14,Session 14,NA,6088,img/testing_events/Ac/Test_Ac_Event_24.jpg,n,response,e,NA,FALSE,Ac
NA,NA,NA,NA,NA,image-keyboard-response,199,675538,0.0-7.0-5.0-0.1,14,Study 14,Session 14,NA,2483,img/testing_events/Ac/Test_Ac_Event_12.jpg,e,response,e,NA,TRUE,Ac
NA,NA,NA,NA,NA,image-keyboard-response,200,679547,0.0-7.0-5.0-0.2,14,Study 14,Session 14,NA,4009,img/testing_events/Ac/Test_Ac_Event_18.jpg,c,response,c,NA,TRUE,Ac
NA,NA,NA,NA,NA,image-keyboard-response,201,682429,0.0-7.0-5.0-0.3,14,Study 14,Session 14,NA,2882,img/testing_events/Ac/Test_Ac_Event_10.jpg,u,response,c,NA,FALSE,Ac
NA,NA,NA,NA,NA,image-keyboard-response,202,687293,0.0-7.0-5.0-0.4,14,Study 14,Session 14,NA,4864,img/testing_events/Ac/Test_Ac_Event_6.jpg,e,response,c,NA,FALSE,Ac
NA,NA,NA,NA,NA,image-keyboard-response,203,688921,0.0-7.0-5.0-0.5,14,Study 14,Session 14,NA,1627,img/testing_events/Ac/Test_Ac_Event_20.jpg,e,response,e,NA,TRUE,Ac
NA,NA,NA,NA,NA,image-keyboard-response,204,691486,0.0-7.0-5.0-0.6,14,Study 14,Session 14,NA,2565,img/testing_events/Ac/Test_Ac_Event_11.jpg,n,response,n,NA,TRUE,Ac
NA,NA,NA,NA,NA,image-keyboard-response,205,696086,0.0-7.0-5.0-0.7,14,Study 14,Session 14,NA,4600,img/testing_events/Ac/Test_Ac_Event_22.jpg,u,response,c,NA,FALSE,Ac
NA,NA,NA,NA,NA,image-keyboard-response,206,699278,0.0-7.0-5.0-0.8,14,Study 14,Session 14,NA,3191,img/testing_events/Ac/Test_Ac_Event_15.jpg,n,response,n,NA,TRUE,Ac
NA,NA,NA,NA,NA,image-keyboard-response,207,701922,0.0-7.0-5.0-0.9,14,Study 14,Session 14,NA,2644,img/testing_events/Ac/Test_Ac_Event_7.jpg,n,response,n,NA,TRUE,Ac
NA,NA,NA,NA,NA,image-keyboard-response,208,703925,0.0-7.0-5.0-0.10,14,Study 14,Session 14,NA,2002,img/testing_events/Ac/Test_Ac_Event_23.jpg,n,response,n,NA,TRUE,Ac
NA,NA,NA,NA,NA,image-keyboard-response,209,705213,0.0-7.0-5.0-0.11,14,Study 14,Session 14,NA,1288,img/testing_events/Ac/Test_Ac_Event_21.jpg,u,response,u,NA,TRUE,Ac
NA,NA,NA,NA,NA,image-keyboard-response,210,708504,0.0-7.0-5.0-0.12,14,Study 14,Session 14,NA,3291,img/testing_events/Ac/Test_Ac_Event_5.jpg,u,response,u,NA,TRUE,Ac
NA,NA,NA,NA,NA,image-keyboard-response,211,711680,0.0-7.0-5.0-0.13,14,Study 14,Session 14,NA,3176,img/testing_events/Ac/Test_Ac_Event_2.jpg,c,response,c,NA,TRUE,Ac
NA,NA,NA,NA,NA,image-keyboard-response,212,715500,0.0-7.0-5.0-0.14,14,Study 14,Session 14,NA,3819,img/testing_events/Ac/Test_Ac_Event_14.jpg,n,response,c,NA,FALSE,Ac
NA,NA,NA,NA,NA,image-keyboard-response,213,718566,0.0-7.0-5.0-0.15,14,Study 14,Session 14,NA,3066,img/testing_events/Ac/Test_Ac_Event_8.jpg,e,response,e,NA,TRUE,Ac
NA,NA,NA,NA,NA,image-keyboard-response,214,721439,0.0-7.0-5.0-0.16,14,Study 14,Session 14,NA,2873,img/testing_events/Ac/Test_Ac_Event_3.jpg,n,response,n,NA,TRUE,Ac
NA,NA,NA,NA,NA,image-keyboard-response,215,722928,0.0-7.0-5.0-0.17,14,Study 14,Session 14,NA,1489,img/testing_events/Ac/Test_Ac_Event_1.jpg,u,response,u,NA,TRUE,Ac
NA,NA,NA,NA,NA,image-keyboard-response,216,726035,0.0-7.0-5.0-0.18,14,Study 14,Session 14,NA,3106,img/testing_events/Ac/Test_Ac_Event_4.jpg,e,response,e,NA,TRUE,Ac
NA,NA,NA,NA,NA,image-keyboard-response,217,731218,0.0-7.0-5.0-0.19,14,Study 14,Session 14,NA,5183,img/testing_events/Ac/Test_Ac_Event_19.jpg,n,response,n,NA,TRUE,Ac
NA,NA,NA,NA,NA,image-keyboard-response,218,734096,0.0-7.0-5.0-0.20,14,Study 14,Session 14,NA,2877,img/testing_events/Ac/Test_Ac_Event_13.jpg,u,response,u,NA,TRUE,Ac
NA,NA,NA,NA,NA,image-keyboard-response,219,736112,0.0-7.0-5.0-0.21,14,Study 14,Session 14,NA,2016,img/testing_events/Ac/Test_Ac_Event_16.jpg,e,response,e,NA,TRUE,Ac
NA,NA,NA,NA,NA,image-keyboard-response,220,737592,0.0-7.0-5.0-0.22,14,Study 14,Session 14,NA,1479,img/testing_events/Ac/Test_Ac_Event_17.jpg,u,response,u,NA,TRUE,Ac
NA,NA,NA,NA,NA,image-keyboard-response,221,739299,0.0-7.0-5.0-0.23,14,Study 14,Session 14,NA,1707,img/testing_events/Ac/Test_Ac_Event_9.jpg,u,response,u,NA,TRUE,Ac
NA,NA,NA,NA,NA,survey-text,222,760462,0.0-8.0,14,Study 14,Session 14,NA,21154,NA,"{""Q0"":""No"",""Q1"":""No"",""Q2"":""N/A""}",NA,NA,NA,NA,NA
NA,NA,NA,NA,NA,survey-html-form,223,788495,0.0-9.0,14,Study 14,Session 14,NA,28031,NA,"{""Gender"":""Male"",""Age"":""29"",""ColorBlind"":""No"",""Education"":""Some College, no degree"",""Income"":""$25,000-$49,999"",""Race"":""White"",""Fluent"":""Yes"",""AgeEnglish"":""0"",""Country"":""United States of America""}",NA,NA,NA,NA,NA
TRUE,NA,NA,NA,NA,fullscreen,224,788496,0.0-10.0,14,Study 14,Session 14,NA,NA,NA,NA,NA,NA,NA,NA,NA
