success,timeout,failed_images,failed_audio,failed_video,trial_type,trial_index,time_elapsed,internal_node_id,subject_id,study_id,session_id,view_history,rt,stimulus,response,task,correct_response,attention_duration,correct,retrieval_group
TRUE,FALSE,[],[],[],preload,0,8030,0.0-0.0,22,Study 22,Session 22,NA,NA,NA,NA,NA,NA,NA,NA,NA
TRUE,NA,NA,NA,NA,fullscreen,1,31805,0.0-1.0,22,Study 22,Session 22,NA,NA,NA,NA,NA,NA,NA,NA,NA
NA,NA,NA,NA,NA,instructions,2,33841,0.0-2.0,22,Study 22,Session 22,"[{""page_index"":0,""viewing_time"":2035}]",2036,NA,NA,NA,NA,NA,NA,NA
NA,NA,NA,NA,NA,html-keyboard-response,3,40433,0.0-3.0,22,Study 22,Session 22,NA,6590,"Welcome to the experiment. <br /><br />This experiment will take about 20 minutes. Please complete all in one sitting. <br /><br />For this study, <strong>please use</strong> a laptop or desktop computer (not a mobile phone or tablet). Also, please use either <u>Chrome or Firefox</u>. <br /><br />Once you begin, <strong>DO NOT</strong> refresh the browser, as the experiment will reset and you will lose your progress. <br /><br />Press the <strong class=""upperline"">B</strong> key on your keyboard to begin.",b,NA,NA,NA,NA,NA
NA,NA,NA,NA,NA,instructions,4,54224,0.0-4.0,22,Study 22,Session 22,"[{""page_index"":0,""viewing_time"":2806},{""page_index"":1,""viewing_time"":7929},{""page_index"":2,""viewing_time"":2055}]",12790,NA,NA,NA,NA,NA,NA,NA
NA,NA,NA,NA,NA,html-keyboard-response,5,57226,0.0-5.0-0.0,22,Study 22,Session 22,NA,null,"<div style=""font-size:60px;"">+</div>",null,fixation,NA,NA,NA,NA
NA,NA,NA,NA,NA,image-keyboard-response,6,63239,0.0-5.0-1.0,22,Study 22,Session 22,NA,null,img/encoding_events/Event_9.jpg,null,NA,NA,NA,NA,NA
NA,NA,NA,NA,NA,html-keyboard-response,7,63241,0.0-5.0-2.0,22,Study 22,Session 22,NA,null,Please press the <strong><u>s</u></strong> key to continue,null,response,s,0,FALSE,NA
NA,NA,NA,NA,NA,html-keyboard-response,8,63742,0.0-5.0-0.1,22,Study 22,Session 22,NA,null,"<div style=""font-size:60px;"">+</div>",null,fixation,NA,NA,NA,NA
NA,NA,NA,NA,NA,image-keyboard-response,9,69751,0.0-5.0-1.1,22,Study 22,Session 22,NA,null,img/encoding_events/Event_21.jpg,null,NA,NA,NA,NA,NA
NA,NA,NA,NA,NA,html-keyboard-response,10,69752,0.0-5.0-2.1,22,Study 22,Session 22,NA,null,Please press the <strong><u>a</u></strong> key to continue,null,response,a,0,FALSE,NA
NA,NA,NA,NA,NA,html-keyboard-response,11,70253,0.0-5.0-0.2,22,Study 22,Session 22,NA,null,"<div style=""font-size:60px;"">+</div>",null,fixation,NA,NA,NA,NA
NA,NA,NA,NA,NA,image-keyboard-response,12,76261,0.0-5.0-1.2,22,Study 22,Session 22,NA,null,img/encoding_events/Event_13.jpg,null,NA,NA,NA,NA,NA
NA,NA,NA,NA,NA,html-keyboard-response,13,76263,0.0-5.0-2.2,22,Study 22,Session 22,NA,null,Please press the <strong><u>s</u></strong> key to continue,null,response,s,0,FALSE,NA
NA,NA,NA,NA,NA,html-keyboard-response,14,76764,0.0-5.0-0.3,22,Study 22,Session 22,NA,null,"<div style=""font-size:60px;"">+</div>",null,fixation,NA,NA,NA,NA
NA,NA,NA,NA,NA,image-keyboard-response,15,82773,0.0-5.0-1.3,22,Study 22,Session 22,NA,null,img/encoding_events/Event_2.jpg,null,NA,NA,NA,NA,NA
NA,NA,NA,NA,NA,html-keyboard-response,16,84009,0.0-5.0-2.3,22,Study 22,Session 22,NA,1235,Please press the <strong><u>k</u></strong> key to continue,k,response,k,6000,TRUE,NA
NA,NA,NA,NA,NA,html-keyboard-response,17,84511,0.0-5.0-0.4,22,Study 22,Session 22,NA,null,"<div style=""font-size:60px;"">+</div>",null,fixation,NA,NA,NA,NA
NA,NA,NA,NA,NA,image-keyboard-response,18,90521,0.0-5.0-1.4,22,Study 22,Session 22,NA,null,img/encoding_events/Event_14.jpg,null,NA,NA,NA,NA,NA
NA,NA,NA,NA,NA,html-keyboard-response,19,90522,0.0-5.0-2.4,22,Study 22,Session 22,NA,null,Please press the <strong><u>a</u></strong> key to continue,null,response,a,0,FALSE,NA
NA,NA,NA,NA,NA,html-keyboard-response,20,91023,0.0-5.0-0.5,22,Study 22,Session 22,NA,null,"<div style=""font-size:60px;"">+</div>",null,fixation,NA,NA,NA,NA
NA,NA,NA,NA,NA,image-keyboard-response,21,97033,0.0-5.0-1.5,22,Study 22,Session 22,NA,null,img/encoding_events/Event_3.jpg,null,NA,NA,NA,NA,NA
NA,NA,NA,NA,NA,html-keyboard-response,22,97035,0.0-5.0-2.5,22,Study 22,Session 22,NA,null,Please press the <strong><u>f</u></strong> key to continue,null,response,f,0,FALSE,NA
NA,NA,NA,NA,NA,html-keyboard-response,23,97536,0.0-5.0-0.6,22,Study 22,Session 22,NA,null,"<div style=""font-size:60px;"">+</div>",null,fixation,NA,NA,NA,NA
NA,NA,NA,NA,NA,image-keyboard-response,24,103544,0.0-5.0-1.6,22,Study 22,Session 22,NA,null,img/encoding_events/Event_5.jpg,null,NA,NA,NA,NA,NA
NA,NA,NA,NA,NA,html-keyboard-response,25,103545,0.0-5.0-2.6,22,Study 22,Session 22,NA,null,Please press the <strong><u>j</u></strong> key to continue,null,response,j,0,FALSE,NA
NA,NA,NA,NA,NA,html-keyboard-response,26,104047,0.0-5.0-0.7,22,Study 22,Session 22,NA,null,"<div style=""font-size:60px;"">+</div>",null,fixation,NA,NA,NA,NA
NA,NA,NA,NA,NA,image-keyboard-response,27,110058,0.0-5.0-1.7,22,Study 22,Session 22,NA,null,img/encoding_events/Event_1.jpg,null,NA,NA,NA,NA,NA
NA,NA,NA,NA,NA,html-keyboard-response,28,111375,0.0-5.0-2.7,22,Study 22,Session 22,NA,1316,Please press the <strong><u>d</u></strong> key to continue,d,response,d,6000,TRUE,NA
NA,NA,NA,NA,NA,html-keyboard-response,29,111876,0.0-5.0-0.8,22,Study 22,Session 22,NA,null,"<div style=""font-size:60px;"">+</div>",null,fixation,NA,NA,NA,NA
NA,NA,NA,NA,NA,image-keyboard-response,30,117887,0.0-5.0-1.8,22,Study 22,Session 22,NA,null,img/encoding_events/Event_6.jpg,null,NA,NA,NA,NA,NA
NA,NA,NA,NA,NA,html-keyboard-response,31,117888,0.0-5.0-2.8,22,Study 22,Session 22,NA,null,Please press the <strong><u>f</u></strong> key to continue,null,response,f,0,FALSE,NA
NA,NA,NA,NA,NA,html-keyboard-response,32,118389,0.0-5.0-0.9,22,Study 22,Session 22,NA,null,"<div style=""font-size:60px;"">+</div>",null,fixation,NA,NA,NA,NA
NA,NA,NA,NA,NA,image-keyboard-response,33,124397,0.0-5.0-1.9,22,Study 22,Session 22,NA,null,img/encoding_events/Event_11.jpg,null,NA,NA,NA,NA,NA
NA,NA,NA,NA,NA,html-keyboard-response,34,124398,0.0-5.0-2.9,22,Study 22,Session 22,NA,null,Please press the <strong><u>j</u></strong> key to continue,null,response,j,0,FALSE,NA
NA,NA,NA,NA,NA,html-keyboard-response,35,124900,0.0-5.0-0.10,22,Study 22,Session 22,NA,null,"<div style=""font-size:60px;"">+</div>",null,fixation,NA,NA,NA,NA
NA,NA,NA,NA,NA,image-keyboard-response,36,130910,0.0-5.0-1.10,22,Study 22,Session 22,NA,null,img/encoding_events/Event_17.jpg,null,NA,NA,NA,NA,NA
NA,NA,NA,NA,NA,html-keyboard-response,37,130911,0.0-5.0-2.10,22,Study 22,Session 22,NA,null,Please press the <strong><u>k</u></strong> key to continue,null,response,k,0,FALSE,NA
NA,NA,NA,NA,NA,html-keyboard-response,38,131412,0.0-5.0-0.11,22,Study 22,Session 22,NA,null,"<div style=""font-size:60px;"">+</div>",null,fixation,NA,NA,NA,NA
NA,NA,NA,NA,NA,image-keyboard-response,39,137420,0.0-5.0-1.11,22,Study 22,Session 22,NA,null,img/encoding_events/Event_7.jpg,null,NA,NA,NA,NA,NA
NA,NA,NA,NA,NA,html-keyboard-response,40,138572,0.0-5.0-2.11,22,Study 22,Session 22,NA,1150,Please press the <strong><u>k</u></strong> key to continue,k,response,k,6000,TRUE,NA
NA,NA,NA,NA,NA,html-keyboard-response,41,139082,0.0-5.0-0.12,22,Study 22,Session 22,NA,null,"<div style=""font-size:60px;"">+</div>",null,fixation,NA,NA,NA,NA
NA,NA,NA,NA,NA,image-keyboard-response,42,145091,0.0-5.0-1.12,22,Study 22,Session 22,NA,null,img/encoding_events/Event_20.jpg,null,NA,NA,NA,NA,NA
NA,NA,NA,NA,NA,html-keyboard-response,43,145092,0.0-5.0-2.12,22,Study 22,Session 22,NA,null,Please press the <strong><u>s</u></strong> key to continue,null,response,s,0,FALSE,NA
NA,NA,NA,NA,NA,html-keyboard-response,44,145594,0.0-5.0-0.13,22,Study 22,Session 22,NA,null,"<div style=""font-size:60px;"">+</div>",null,fixation,NA,NA,NA,NA
NA,NA,NA,NA,NA,image-keyboard-response,45,151603,0.0-5.0-1.13,22,Study 22,Session 22,NA,null,img/encoding_events/Event_22.jpg,null,NA,NA,NA,NA,NA
NA,NA,NA,NA,NA,html-keyboard-response,46,151604,0.0-5.0-2.13,22,Study 22,Session 22,NA,null,Please press the <strong><u>s</u></strong> key to continue,null,response,s,0,FALSE,NA
NA,NA,NA,NA,NA,html-keyboard-response,47,152106,0.0-5.0-0.14,22,Study 22,Session 22,NA,null,"<div style=""font-size:60px;"">+</div>",null,fixation,NA,NA,NA,NA
NA,NA,NA,NA,NA,image-keyboard-response,48,158116,0.0-5.0-1.14,22,Study 22,Session 22,NA,null,img/encoding_events/Event_18.jpg,null,NA,NA,NA,NA,NA
NA,NA,NA,NA,NA,html-keyboard-response,49,158117,0.0-5.0-2.14,22,Study 22,Session 22,NA,null,Please press the <strong><u>d</u></strong> key to continue,null,response,d,0,FALSE,NA
NA,NA,NA,NA,NA,html-keyboard-response,50,158618,0.0-5.0-0.15,22,Study 22,Session 22,NA,null,"<div style=""font-size:60px;"">+</div>",null,fixation,NA,NA,NA,NA
NA,NA,NA,NA,NA,image-keyboard-response,51,164627,0.0-5.0-1.15,22,Study 22,Session 22,NA,null,img/encoding_events/Event_16.jpg,null,NA,NA,NA,NA,NA
NA,NA,NA,NA,NA,html-keyboard-response,52,166085,0.0-5.0-2.15,22,Study 22,Session 22,NA,1457,Please press the <strong><u>k</u></strong> key to continue,k,response,k,6000,TRUE,NA
NA,NA,NA,NA,NA,html-keyboard-response,53,166586,0.0-5.0-0.16,22,Study 22,Session 22,NA,null,"<div style=""font-size:60px;"">+</div>",null,fixation,NA,NA,NA,NA
NA,NA,NA,NA,NA,image-keyboard-response,54,172595,0.0-5.0-1.16,22,Study 22,Session 22,NA,null,img/encoding_events/Event_19.jpg,null,NA,NA,NA,NA,NA
NA,NA,NA,NA,NA,html-keyboard-response,55,172596,0.0-5.0-2.16,22,Study 22,Session 22,NA,null,Please press the <strong><u>f</u></strong> key to continue,null,response,f,0,FALSE,NA
NA,NA,NA,NA,NA,html-keyboard-response,56,173097,0.0-5.0-0.17,22,Study 22,Session 22,NA,null,"<div style=""font-size:60px;"">+</div>",null,fixation,NA,NA,NA,NA
NA,NA,NA,NA,NA,image-keyboard-response,57,179106,0.0-5.0-1.17,22,Study 22,Session 22,NA,null,img/encoding_events/Event_23.jpg,null,NA,NA,NA,NA,NA
NA,NA,NA,NA,NA,html-keyboard-response,58,179108,0.0-5.0-2.17,22,Study 22,Session 22,NA,null,Please press the <strong><u>k</u></strong> key to continue,null,response,k,0,FALSE,NA
NA,NA,NA,NA,NA,html-keyboard-response,59,179609,0.0-5.0-0.18,22,Study 22,Session 22,NA,null,"<div style=""font-size:60px;"">+</div>",null,fixation,NA,NA,NA,NA
NA,NA,NA,NA,NA,image-keyboard-response,60,185618,0.0-5.0-1.18,22,Study 22,Session 22,NA,null,img/encoding_events/Event_10.jpg,null,NA,NA,NA,NA,NA
NA,NA,NA,NA,NA,html-keyboard-response,61,185619,0.0-5.0-2.18,22,Study 22,Session 22,NA,null,Please press the <strong><u>a</u></strong> key to continue,null,response,a,0,FALSE,NA
NA,NA,NA,NA,NA,html-keyboard-response,62,186120,0.0-5.0-0.19,22,Study 22,Session 22,NA,null,"<div style=""font-size:60px;"">+</div>",null,fixation,NA,NA,NA,NA
NA,NA,NA,NA,NA,image-keyboard-response,63,192129,0.0-5.0-1.19,22,Study 22,Session 22,NA,null,img/encoding_events/Event_24.jpg,null,NA,NA,NA,NA,NA
NA,NA,NA,NA,NA,html-keyboard-response,64,198131,0.0-5.0-2.19,22,Study 22,Session 22,NA,null,Please press the <strong><u>s</u></strong> key to continue,null,response,s,6000,FALSE,NA
NA,NA,NA,NA,NA,html-keyboard-response,65,198632,0.0-5.0-0.20,22,Study 22,Session 22,NA,null,"<div style=""font-size:60px;"">+</div>",null,fixation,NA,NA,NA,NA
NA,NA,NA,NA,NA,image-keyboard-response,66,204641,0.0-5.0-1.20,22,Study 22,Session 22,NA,null,img/encoding_events/Event_8.jpg,null,NA,NA,NA,NA,NA
NA,NA,NA,NA,NA,html-keyboard-response,67,204646,0.0-5.0-2.20,22,Study 22,Session 22,NA,null,Please press the <strong><u>j</u></strong> key to continue,null,response,j,0,FALSE,NA
NA,NA,NA,NA,NA,html-keyboard-response,68,205148,0.0-5.0-0.21,22,Study 22,Session 22,NA,null,"<div style=""font-size:60px;"">+</div>",null,fixation,NA,NA,NA,NA
NA,NA,NA,NA,NA,image-keyboard-response,69,211158,0.0-5.0-1.21,22,Study 22,Session 22,NA,null,img/encoding_events/Event_15.jpg,null,NA,NA,NA,NA,NA
NA,NA,NA,NA,NA,html-keyboard-response,70,211163,0.0-5.0-2.21,22,Study 22,Session 22,NA,null,Please press the <strong><u>s</u></strong> key to continue,null,response,s,0,FALSE,NA
NA,NA,NA,NA,NA,html-keyboard-response,71,211665,0.0-5.0-0.22,22,Study 22,Session 22,NA,null,"<div style=""font-size:60px;"">+</div>",null,fixation,NA,NA,NA,NA
NA,NA,NA,NA,NA,image-keyboard-response,72,217674,0.0-5.0-1.22,22,Study 22,Session 22,NA,null,img/encoding_events/Event_4.jpg,null,NA,NA,NA,NA,NA
NA,NA,NA,NA,NA,html-keyboard-response,73,217679,0.0-5.0-2.22,22,Study 22,Session 22,NA,null,Please press the <strong><u>j</u></strong> key to continue,null,response,j,0,FALSE,NA
NA,NA,NA,NA,NA,html-keyboard-response,74,218180,0.0-5.0-0.23,22,Study 22,Session 22,NA,null,"<div style=""font-size:60px;"">+</div>",null,fixation,NA,NA,NA,NA
NA,NA,NA,NA,NA,image-keyboard-response,75,224189,0.0-5.0-1.23,22,Study 22,Session 22,NA,null,img/encoding_events/Event_12.jpg,null,NA,NA,NA,NA,NA
NA,NA,NA,NA,NA,html-keyboard-response,76,225555,0.0-5.0-2.23,22,Study 22,Session 22,NA,1365,Please press the <strong><u>a</u></strong> key to continue,a,response,a,6000,TRUE,NA
NA,NA,NA,NA,NA,instructions,77,252557,0.0-6.0,22,Study 22,Session 22,"[{""page_index"":0,""viewing_time"":2154},{""page_index"":1,""viewing_time"":3688},{""page_index"":2,""viewing_time"":4090},{""page_index"":3,""viewing_time"":6250},{""page_index"":4,""viewing_time"":6948},{""page_index"":5,""viewing_time"":2566},{""page_index"":6,""viewing_time"":1306}]",27002,NA,NA,NA,NA,NA,NA,NA
NA,NA,NA,NA,NA,image-keyboard-response,78,262972,0.0-7.0-0.0-0.0,22,Study 22,Session 22,NA,7905,img/testing_events/Cb/Test_Cb_Event_10.jpg,c,response,c,NA,TRUE,Cb
NA,NA,NA,NA,NA,image-keyboard-response,79,271019,0.0-7.0-0.0-0.1,22,Study 22,Session 22,NA,8038,img/testing_events/Cb/Test_Cb_Event_19.jpg,n,response,n,NA,TRUE,Cb
NA,NA,NA,NA,NA,image-keyboard-response,80,277327,0.0-7.0-0.0-0.2,22,Study 22,Session 22,NA,6299,img/testing_events/Cb/Test_Cb_Event_12.jpg,n,response,e,NA,FALSE,Cb
NA,NA,NA,NA,NA,image-keyboard-response,81,289686,0.0-7.0-0.0-0.3,22,Study 22,Session 22,NA,12351,img/testing_events/Cb/Test_Cb_Event_17.jpg,e,response,u,NA,FALSE,Cb
NA,NA,NA,NA,NA,image-keyboard-response,82,298134,0.0-7.0-0.0-0.4,22,Study 22,Session 22,NA,8440,img/testing_events/Cb/Test_Cb_Event_20.jpg,u,response,e,NA,FALSE,Cb
NA,NA,NA,NA,NA,image-keyboard-response,83,300400,0.0-7.0-0.0-0.5,22,Study 22,Session 22,NA,2259,img/testing_events/Cb/Test_Cb_Event_5.jpg,u,response,u,NA,TRUE,Cb
NA,NA,NA,NA,NA,image-keyboard-response,84,309837,0.0-7.0-0.0-0.6,22,Study 22,Session 22,NA,9429,img/testing_events/Cb/Test_Cb_Event_14.jpg,c,response,c,NA,TRUE,Cb
NA,NA,NA,NA,NA,image-keyboard-response,85,317981,0.0-7.0-0.0-0.7,22,Study 22,Session 22,NA,8136,img/testing_events/Cb/Test_Cb_Event_11.jpg,u,response,n,NA,FALSE,Cb
NA,NA,NA,NA,NA,image-keyboard-response,86,320932,0.0-7.0-0.0-0.8,22,Study 22,Session 22,NA,2942,img/testing_events/Cb/Test_Cb_Event_23.jpg,n,response,n,NA,TRUE,Cb
NA,NA,NA,NA,NA,image-keyboard-response,87,326804,0.0-7.0-0.0-0.9,22,Study 22,Session 22,NA,5862,img/testing_events/Cb/Test_Cb_Event_24.jpg,e,response,e,NA,TRUE,Cb
NA,NA,NA,NA,NA,image-keyboard-response,88,331664,0.0-7.0-0.0-0.10,22,Study 22,Session 22,NA,4851,img/testing_events/Cb/Test_Cb_Event_4.jpg,c,response,e,NA,FALSE,Cb
NA,NA,NA,NA,NA,image-keyboard-response,89,335706,0.0-7.0-0.0-0.11,22,Study 22,Session 22,NA,4033,img/testing_events/Cb/Test_Cb_Event_13.jpg,c,response,u,NA,FALSE,Cb
NA,NA,NA,NA,NA,image-keyboard-response,90,338519,0.0-7.0-0.0-0.12,22,Study 22,Session 22,NA,2800,img/testing_events/Cb/Test_Cb_Event_15.jpg,e,response,n,NA,FALSE,Cb
NA,NA,NA,NA,NA,image-keyboard-response,91,342735,0.0-7.0-0.0-0.13,22,Study 22,Session 22,NA,4208,img/testing_events/Cb/Test_Cb_Event_9.jpg,u,response,u,NA,TRUE,Cb
NA,NA,NA,NA,NA,image-keyboard-response,92,345879,0.0-7.0-0.0-0.14,22,Study 22,Session 22,NA,3135,img/testing_events/Cb/Test_Cb_Event_18.jpg,c,response,c,NA,TRUE,Cb
NA,NA,NA,NA,NA,image-keyboard-response,93,348567,0.0-7.0-0.0-0.15,22,Study 22,Session 22,NA,2679,img/testing_events/Cb/Test_Cb_Event_16.jpg,e,response,e,NA,TRUE,Cb
NA,NA,NA,NA,NA,image-keyboard-response,94,350127,0.0-7.0-0.0-0.16,22,Study 22,Session 22,NA,1551,img/testing_events/Cb/Test_Cb_Event_2.jpg,c,response,c,NA,TRUE,Cb
NA,NA,NA,NA,NA,image-keyboard-response,95,354672,0.0-7.0-0.0-0.17,22,Study 22,Session 22,NA,4534,img/testing_events/Cb/Test_Cb_Event_1.jpg,e,response,u,NA,FALSE,Cb
NA,NA,NA,NA,NA,image-keyboard-response,96,357016,0.0-7.0-0.0-0.18,22,Study 22,Session 22,NA,2336,img/testing_events/Cb/Test_Cb_Event_22.jpg,c,response,c,NA,TRUE,Cb
NA,NA,NA,NA,NA,image-keyboard-response,97,360519,0.0-7.0-0.0-0.19,22,Study 22,Session 22,NA,3495,img/testing_events/Cb/Test_Cb_Event_7.jpg,n,response,n,NA,TRUE,Cb
NA,NA,NA,NA,NA,image-keyboard-response,98,366622,0.0-7.0-0.0-0.20,22,Study 22,Session 22,NA,6096,img/testing_events/Cb/Test_Cb_Event_21.jpg,n,response,u,NA,FALSE,Cb
NA,NA,NA,NA,NA,image-keyboard-response,99,371151,0.0-7.0-0.0-0.21,22,Study 22,Session 22,NA,4519,img/testing_events/Cb/Test_Cb_Event_8.jpg,c,response,e,NA,FALSE,Cb
NA,NA,NA,NA,NA,image-keyboard-response,100,375320,0.0-7.0-0.0-0.22,22,Study 22,Session 22,NA,4160,img/testing_events/Cb/Test_Cb_Event_6.jpg,c,response,c,NA,TRUE,Cb
NA,NA,NA,NA,NA,image-keyboard-response,101,387003,0.0-7.0-0.0-0.23,22,Study 22,Session 22,NA,11674,img/testing_events/Cb/Test_Cb_Event_3.jpg,n,response,n,NA,TRUE,Cb
NA,NA,NA,NA,NA,image-keyboard-response,102,395021,0.0-7.0-1.0-0.0,22,Study 22,Session 22,NA,8010,img/testing_events/Ac/Test_Ac_Event_6.jpg,u,response,c,NA,FALSE,Ac
NA,NA,NA,NA,NA,image-keyboard-response,103,402508,0.0-7.0-1.0-0.1,22,Study 22,Session 22,NA,7476,img/testing_events/Ac/Test_Ac_Event_19.jpg,n,response,n,NA,TRUE,Ac
NA,NA,NA,NA,NA,image-keyboard-response,104,408537,0.0-7.0-1.0-0.2,22,Study 22,Session 22,NA,6020,img/testing_events/Ac/Test_Ac_Event_21.jpg,n,response,u,NA,FALSE,Ac
NA,NA,NA,NA,NA,image-keyboard-response,105,414945,0.0-7.0-1.0-0.3,22,Study 22,Session 22,NA,6399,img/testing_events/Ac/Test_Ac_Event_8.jpg,u,response,e,NA,FALSE,Ac
NA,NA,NA,NA,NA,image-keyboard-response,106,418599,0.0-7.0-1.0-0.4,22,Study 22,Session 22,NA,3645,img/testing_events/Ac/Test_Ac_Event_17.jpg,u,response,u,NA,TRUE,Ac
NA,NA,NA,NA,NA,image-keyboard-response,107,422433,0.0-7.0-1.0-0.5,22,Study 22,Session 22,NA,3825,img/testing_events/Ac/Test_Ac_Event_4.jpg,e,response,e,NA,TRUE,Ac
NA,NA,NA,NA,NA,image-keyboard-response,108,426143,0.0-7.0-1.0-0.6,22,Study 22,Session 22,NA,3700,img/testing_events/Ac/Test_Ac_Event_22.jpg,c,response,c,NA,TRUE,Ac
NA,NA,NA,NA,NA,image-keyboard-response,109,429152,0.0-7.0-1.0-0.7,22,Study 22,Session 22,NA,2999,img/testing_events/Ac/Test_Ac_Event_3.jpg,n,response,n,NA,TRUE,Ac
NA,NA,NA,NA,NA,image-keyboard-response,110,433253,0.0-7.0-1.0-0.8,22,Study 22,Session 22,NA,4092,img/testing_events/Ac/Test_Ac_Event_23.jpg,u,response,n,NA,FALSE,Ac
NA,NA,NA,NA,NA,image-keyboard-response,111,439589,0.0-7.0-1.0-0.9,22,Study 22,Session 22,NA,6327,img/testing_events/Ac/Test_Ac_Event_16.jpg,e,response,e,NA,TRUE,Ac
NA,NA,NA,NA,NA,image-keyboard-response,112,444645,0.0-7.0-1.0-0.10,22,Study 22,Session 22,NA,5048,img/testing_events/Ac/Test_Ac_Event_10.jpg,n,response,c,NA,FALSE,Ac
NA,NA,NA,NA,NA,image-keyboard-response,113,448005,0.0-7.0-1.0-0.11,22,Study 22,Session 22,NA,3349,img/testing_events/Ac/Test_Ac_Event_24.jpg,e,response,e,NA,TRUE,Ac
NA,NA,NA,NA,NA,image-keyboard-response,114,452484,0.0-7.0-1.0-0.12,22,Study 22,Session 22,NA,4471,img/testing_events/Ac/Test_Ac_Event_14.jpg,c,response,c,NA,TRUE,Ac
NA,NA,NA,NA,NA,image-keyboard-response,115,456069,0.0-7.0-1.0-0.13,22,Study 22,Session 22,NA,3576,img/testing_events/Ac/Test_Ac_Event_12.jpg,n,response,e,NA,FALSE,Ac
NA,NA,NA,NA,NA,image-keyboard-response,116,458757,0.0-7.0-1.0-0.14,22,Study 22,Session 22,NA,2677,img/testing_events/Ac/Test_Ac_Event_11.jpg,e,response,n,NA,FALSE,Ac
NA,NA,NA,NA,NA,image-keyboard-response,117,464164,0.0-7.0-1.0-0.15,22,Study 22,Session 22,NA,5398,img/testing_events/Ac/Test_Ac_Event_2.jpg,u,response,c,NA,FALSE,Ac
NA,NA,NA,NA,NA,image-keyboard-response,118,469950,0.0-7.0-1.0-0.16,22,Study 22,Session 22,NA,5777,img/testing_events/Ac/Test_Ac_Event_20.jpg,n,response,e,NA,FALSE,Ac
NA,NA,NA,NA,NA,image-keyboard-response,119,475076,0.0-7.0-1.0-0.17,22,Study 22,Session 22,NA,5118,img/testing_events/Ac/Test_Ac_Event_13.jpg,e,response,u,NA,FALSE,Ac
NA,NA,NA,NA,NA,image-keyboard-response,120,477908,0.0-7.0-1.0-0.18,22,Study 22,Session 22,NA,2822,img/testing_events/Ac/Test_Ac_Event_9.jpg,u,response,u,NA,TRUE,Ac
NA,NA,NA,NA,NA,image-keyboard-response,121,480190,0.0-7.0-1.0-0.19,22,Study 22,Session 22,NA,2273,img/testing_events/Ac/Test_Ac_Event_5.jpg,u,response,u,NA,TRUE,Ac
NA,NA,NA,NA,NA,image-keyboard-response,122,485428,0.0-7.0-1.0-0.20,22,Study 22,Session 22,NA,5229,img/testing_events/Ac/Test_Ac_Event_18.jpg,c,response,c,NA,TRUE,Ac
NA,NA,NA,NA,NA,image-keyboard-response,123,486932,0.0-7.0-1.0-0.21,22,Study 22,Session 22,NA,1495,img/testing_events/Ac/Test_Ac_Event_7.jpg,n,response,n,NA,TRUE,Ac
NA,NA,NA,NA,NA,image-keyboard-response,124,492078,0.0-7.0-1.0-0.22,22,Study 22,Session 22,NA,5138,img/testing_events/Ac/Test_Ac_Event_15.jpg,n,response,n,NA,TRUE,Ac
NA,NA,NA,NA,NA,image-keyboard-response,125,496059,0.0-7.0-1.0-0.23,22,Study 22,Session 22,NA,3973,img/testing_events/Ac/Test_Ac_Event_1.jpg,u,response,u,NA,TRUE,Ac
NA,NA,NA,NA,NA,image-keyboard-response,126,505691,0.0-7.0-2.0-0.0,22,Study 22,Session 22,NA,9623,img/testing_events/Ba/Test_Ba_Event_23.jpg,e,response,e,NA,TRUE,Ba
NA,NA,NA,NA,NA,image-keyboard-response,127,512163,0.0-7.0-2.0-0.1,22,Study 22,Session 22,NA,6461,img/testing_events/Ba/Test_Ba_Event_14.jpg,n,response,n,NA,TRUE,Ba
NA,NA,NA,NA,NA,image-keyboard-response,128,513842,0.0-7.0-2.0-0.2,22,Study 22,Session 22,NA,1669,img/testing_events/Ba/Test_Ba_Event_19.jpg,e,response,e,NA,TRUE,Ba
NA,NA,NA,NA,NA,image-keyboard-response,129,522709,0.0-7.0-2.0-0.3,22,Study 22,Session 22,NA,8858,img/testing_events/Ba/Test_Ba_Event_15.jpg,e,response,e,NA,TRUE,Ba
NA,NA,NA,NA,NA,image-keyboard-response,130,531379,0.0-7.0-2.0-0.4,22,Study 22,Session 22,NA,8662,img/testing_events/Ba/Test_Ba_Event_20.jpg,u,response,u,NA,TRUE,Ba
NA,NA,NA,NA,NA,image-keyboard-response,131,538653,0.0-7.0-2.0-0.5,22,Study 22,Session 22,NA,7265,img/testing_events/Ba/Test_Ba_Event_2.jpg,n,response,n,NA,TRUE,Ba
NA,NA,NA,NA,NA,image-keyboard-response,132,544401,0.0-7.0-2.0-0.6,22,Study 22,Session 22,NA,5738,img/testing_events/Ba/Test_Ba_Event_22.jpg,n,response,n,NA,TRUE,Ba
NA,NA,NA,NA,NA,image-keyboard-response,133,558327,0.0-7.0-2.0-0.7,22,Study 22,Session 22,NA,13918,img/testing_events/Ba/Test_Ba_Event_6.jpg,e,response,n,NA,FALSE,Ba
NA,NA,NA,NA,NA,image-keyboard-response,134,562701,0.0-7.0-2.0-0.8,22,Study 22,Session 22,NA,4365,img/testing_events/Ba/Test_Ba_Event_8.jpg,u,response,u,NA,TRUE,Ba
NA,NA,NA,NA,NA,image-keyboard-response,135,565933,0.0-7.0-2.0-0.9,22,Study 22,Session 22,NA,3223,img/testing_events/Ba/Test_Ba_Event_13.jpg,c,response,c,NA,TRUE,Ba
NA,NA,NA,NA,NA,image-keyboard-response,136,569613,0.0-7.0-2.0-0.10,22,Study 22,Session 22,NA,3671,img/testing_events/Ba/Test_Ba_Event_17.jpg,c,response,c,NA,TRUE,Ba
NA,NA,NA,NA,NA,image-keyboard-response,137,577481,0.0-7.0-2.0-0.11,22,Study 22,Session 22,NA,7859,img/testing_events/Ba/Test_Ba_Event_10.jpg,e,response,n,NA,FALSE,Ba
NA,NA,NA,NA,NA,image-keyboard-response,138,579538,0.0-7.0-2.0-0.12,22,Study 22,Session 22,NA,2048,img/testing_events/Ba/Test_Ba_Event_5.jpg,c,response,c,NA,TRUE,Ba
NA,NA,NA,NA,NA,image-keyboard-response,139,582665,0.0-7.0-2.0-0.13,22,Study 22,Session 22,NA,3118,img/testing_events/Ba/Test_Ba_Event_16.jpg,u,response,u,NA,TRUE,Ba
NA,NA,NA,NA,NA,image-keyboard-response,140,586203,0.0-7.0-2.0-0.14,22,Study 22,Session 22,NA,3527,img/testing_events/Ba/Test_Ba_Event_12.jpg,u,response,u,NA,TRUE,Ba
NA,NA,NA,NA,NA,image-keyboard-response,141,591253,0.0-7.0-2.0-0.15,22,Study 22,Session 22,NA,5039,img/testing_events/Ba/Test_Ba_Event_24.jpg,c,response,u,NA,FALSE,Ba
NA,NA,NA,NA,NA,image-keyboard-response,142,592493,0.0-7.0-2.0-0.16,22,Study 22,Session 22,NA,1230,img/testing_events/Ba/Test_Ba_Event_3.jpg,e,response,e,NA,TRUE,Ba
NA,NA,NA,NA,NA,image-keyboard-response,143,594733,0.0-7.0-2.0-0.17,22,Study 22,Session 22,NA,2230,img/testing_events/Ba/Test_Ba_Event_9.jpg,c,response,c,NA,TRUE,Ba
NA,NA,NA,NA,NA,image-keyboard-response,144,602413,0.0-7.0-2.0-0.18,22,Study 22,Session 22,NA,7671,img/testing_events/Ba/Test_Ba_Event_1.jpg,c,response,c,NA,TRUE,Ba
NA,NA,NA,NA,NA,image-keyboard-response,145,610200,0.0-7.0-2.0-0.19,22,Study 22,Session 22,NA,7778,img/testing_events/Ba/Test_Ba_Event_7.jpg,c,response,e,NA,FALSE,Ba
NA,NA,NA,NA,NA,image-keyboard-response,146,617409,0.0-7.0-2.0-0.20,22,Study 22,Session 22,NA,7200,img/testing_events/Ba/Test_Ba_Event_4.jpg,e,response,u,NA,FALSE,Ba
NA,NA,NA,NA,NA,image-keyboard-response,147,622696,0.0-7.0-2.0-0.21,22,Study 22,Session 22,NA,5277,img/testing_events/Ba/Test_Ba_Event_21.jpg,n,response,c,NA,FALSE,Ba
NA,NA,NA,NA,NA,image-keyboard-response,148,628163,0.0-7.0-2.0-0.22,22,Study 22,Session 22,NA,5457,img/testing_events/Ba/Test_Ba_Event_11.jpg,e,response,e,NA,TRUE,Ba
NA,NA,NA,NA,NA,image-keyboard-response,149,632118,0.0-7.0-2.0-0.23,22,Study 22,Session 22,NA,3946,img/testing_events/Ba/Test_Ba_Event_18.jpg,n,response,n,NA,TRUE,Ba
NA,NA,NA,NA,NA,image-keyboard-response,150,637228,0.0-7.0-3.0-0.0,22,Study 22,Session 22,NA,5100,img/testing_events/Ca/Test_Ca_Event_7.jpg,c,response,c,NA,TRUE,Ca
NA,NA,NA,NA,NA,image-keyboard-response,151,642042,0.0-7.0-3.0-0.1,22,Study 22,Session 22,NA,4804,img/testing_events/Ca/Test_Ca_Event_18.jpg,n,response,u,NA,FALSE,Ca
NA,NA,NA,NA,NA,image-keyboard-response,152,646481,0.0-7.0-3.0-0.2,22,Study 22,Session 22,NA,4425,img/testing_events/Ca/Test_Ca_Event_10.jpg,e,response,u,NA,FALSE,Ca
NA,NA,NA,NA,NA,image-keyboard-response,153,651570,0.0-7.0-3.0-0.3,22,Study 22,Session 22,NA,5078,img/testing_events/Ca/Test_Ca_Event_13.jpg,c,response,e,NA,FALSE,Ca
NA,NA,NA,NA,NA,image-keyboard-response,154,655023,0.0-7.0-3.0-0.4,22,Study 22,Session 22,NA,3443,img/testing_events/Ca/Test_Ca_Event_4.jpg,u,response,n,NA,FALSE,Ca
NA,NA,NA,NA,NA,image-keyboard-response,155,661359,0.0-7.0-3.0-0.5,22,Study 22,Session 22,NA,6326,img/testing_events/Ca/Test_Ca_Event_6.jpg,n,response,u,NA,FALSE,Ca
NA,NA,NA,NA,NA,image-keyboard-response,156,662876,0.0-7.0-3.0-0.6,22,Study 22,Session 22,NA,1508,img/testing_events/Ca/Test_Ca_Event_1.jpg,e,response,e,NA,TRUE,Ca
NA,NA,NA,NA,NA,image-keyboard-response,157,672911,0.0-7.0-3.0-0.7,22,Study 22,Session 22,NA,10024,img/testing_events/Ca/Test_Ca_Event_20.jpg,e,response,n,NA,FALSE,Ca
NA,NA,NA,NA,NA,image-keyboard-response,158,675928,0.0-7.0-3.0-0.8,22,Study 22,Session 22,NA,3008,img/testing_events/Ca/Test_Ca_Event_24.jpg,u,response,n,NA,FALSE,Ca
NA,NA,NA,NA,NA,image-keyboard-response,159,679144,0.0-7.0-3.0-0.9,22,Study 22,Session 22,NA,3206,img/testing_events/Ca/Test_Ca_Event_8.jpg,c,response,n,NA,FALSE,Ca
NA,NA,NA,NA,NA,image-keyboard-response,160,681383,0.0-7.0-3.0-0.10,22,Study 22,Session 22,NA,2230,img/testing_events/Ca/Test_Ca_Event_3.jpg,u,response,c,NA,FALSE,Ca
NA,NA,NA,NA,NA,image-keyboard-response,161,684904,0.0-7.0-3.0-0.11,22,Study 22,Session 22,NA,3511,img/testing_events/Ca/Test_Ca_Event_5.jpg,e,response,e,NA,TRUE,Ca
NA,NA,NA,NA,NA,image-keyboard-response,162,690437,0.0-7.0-3.0-0.12,22,Study 22,Session 22,NA,5523,img/testing_events/Ca/Test_Ca_Event_15.jpg,c,response,c,NA,TRUE,Ca
NA,NA,NA,NA,NA,image-keyboard-response,163,695862,0.0-7.0-3.0-0.13,22,Study 22,Session 22,NA,5414,img/testing_events/Ca/Test_Ca_Event_14.jpg,u,response,u,NA,TRUE,Ca
NA,NA,NA,NA,NA,image-keyboard-response,164,698208,0.0-7.0-3.0-0.14,22,Study 22,Session 22,NA,2337,img/testing_events/Ca/Test_Ca_Event_22.jpg,u,response,u,NA,TRUE,Ca
NA,NA,NA,NA,NA,image-keyboard-response,165,705457,0.0-7.0-3.0-0.15,22,Study 22,Session 22,NA,7240,img/testing_events/Ca/Test_Ca_Event_9.jpg,e,response,e,NA,TRUE,Ca
NA,NA,NA,NA,NA,image-keyboard-response,166,708217,0.0-7.0-3.0-0.16,22,Study 22,Session 22,NA,2748,img/testing_events/Ca/Test_Ca_Event_11.jpg,c,response,c,NA,TRUE,Ca
NA,NA,NA,NA,NA,image-keyboard-response,167,713640,0.0-7.0-3.0-0.17,22,Study 22,Session 22,NA,5414,img/testing_events/Ca/Test_Ca_Event_23.jpg,c,response,c,NA,TRUE,Ca
NA,NA,NA,NA,NA,image-keyboard-response,168,715894,0.0-7.0-3.0-0.18,22,Study 22,Session 22,NA,2242,img/testing_events/Ca/Test_Ca_Event_12.jpg,e,response,n,NA,FALSE,Ca
NA,NA,NA,NA,NA,image-keyboard-response,169,721239,0.0-7.0-3.0-0.19,22,Study 22,Session 22,NA,5337,img/testing_events/Ca/Test_Ca_Event_19.jpg,c,response,c,NA,TRUE,Ca
NA,NA,NA,NA,NA,image-keyboard-response,170,724878,0.0-7.0-3.0-0.20,22,Study 22,Session 22,NA,3629,img/testing_events/Ca/Test_Ca_Event_16.jpg,n,response,n,NA,TRUE,Ca
NA,NA,NA,NA,NA,image-keyboard-response,171,728854,0.0-7.0-3.0-0.21,22,Study 22,Session 22,NA,3966,img/testing_events/Ca/Test_Ca_Event_21.jpg,e,response,e,NA,TRUE,Ca
NA,NA,NA,NA,NA,image-keyboard-response,172,733854,0.0-7.0-3.0-0.22,22,Study 22,Session 22,NA,4991,img/testing_events/Ca/Test_Ca_Event_17.jpg,e,response,e,NA,TRUE,Ca
NA,NA,NA,NA,NA,image-keyboard-response,173,738207,0.0-7.0-3.0-0.23,22,Study 22,Session 22,NA,4343,img/testing_events/Ca/Test_Ca_Event_2.jpg,u,response,u,NA,TRUE,Ca
NA,NA,NA,NA,NA,image-keyboard-response,174,745869,0.0-7.0-4.0-0.0,22,Study 22,Session 22,NA,7653,img/testing_events/Ab/Test_Ab_Event_16.jpg,n,response,n,NA,TRUE,Ab
NA,NA,NA,NA,NA,image-keyboard-response,175,748701,0.0-7.0-4.0-0.1,22,Study 22,Session 22,NA,2821,img/testing_events/Ab/Test_Ab_Event_4.jpg,c,response,n,NA,FALSE,Ab
NA,NA,NA,NA,NA,image-keyboard-response,176,750085,0.0-7.0-4.0-0.2,22,Study 22,Session 22,NA,1375,img/testing_events/Ab/Test_Ab_Event_8.jpg,n,response,n,NA,TRUE,Ab
NA,NA,NA,NA,NA,image-keyboard-response,177,755839,0.0-7.0-4.0-0.3,22,Study 22,Session 22,NA,5744,img/testing_events/Ab/Test_Ab_Event_15.jpg,u,response,c,NA,FALSE,Ab
NA,NA,NA,NA,NA,image-keyboard-response,178,761002,0.0-7.0-4.0-0.4,22,Study 22,Session 22,NA,5152,img/testing_events/Ab/Test_Ab_Event_13.jpg,e,response,e,NA,TRUE,Ab
NA,NA,NA,NA,NA,image-keyboard-response,179,764967,0.0-7.0-4.0-0.5,22,Study 22,Session 22,NA,3948,img/testing_events/Ab/Test_Ab_Event_21.jpg,e,response,e,NA,TRUE,Ab
NA,NA,NA,NA,NA,image-keyboard-response,180,766424,0.0-7.0-4.0-0.6,22,Study 22,Session 22,NA,1446,img/testing_events/Ab/Test_Ab_Event_3.jpg,c,response,c,NA,TRUE,Ab
NA,NA,NA,NA,NA,image-keyboard-response,181,770400,0.0-7.0-4.0-0.7,22,Study 22,Session 22,NA,3966,img/testing_events/Ab/Test_Ab_Event_10.jpg,u,response,u,NA,TRUE,Ab
NA,NA,NA,NA,NA,image-keyboard-response,182,774653,0.0-7.0-4.0-0.8,22,Study 22,Session 22,NA,4245,img/testing_events/Ab/Test_Ab_Event_1.jpg,e,response,e,NA,TRUE,Ab
NA,NA,NA,NA,NA,image-keyboard-response,183,779744,0.0-7.0-4.0-0.9,22,Study 22,Session 22,NA,5082,img/testing_events/Ab/Test_Ab_Event_24.jpg,n,response,n,NA,TRUE,Ab
NA,NA,NA,NA,NA,image-keyboard-response,184,787226,0.0-7.0-4.0-0.10,22,Study 22,Session 22,NA,7472,img/testing_events/Ab/Test_Ab_Event_14.jpg,u,response,u,NA,TRUE,Ab
NA,NA,NA,NA,NA,image-keyboard-response,185,790178,0.0-7.0-4.0-0.11,22,Study 22,Session 22,NA,2941,img/testing_events/Ab/Test_Ab_Event_23.jpg,c,response,c,NA,TRUE,Ab
NA,NA,NA,NA,NA,image-keyboard-response,186,793667,0.0-7.0-4.0-0.12,22,Study 22,Session 22,NA,3480,img/testing_events/Ab/Test_Ab_Event_7.jpg,c,response,c,NA,TRUE,Ab
NA,NA,NA,NA,NA,image-keyboard-response,187,794679,0.0-7.0-4.0-0.13,22,Study 22,Session 22,NA,1001,img/testing_events/Ab/Test_Ab_Event_5.jpg,e,response,e,NA,TRUE,Ab
NA,NA,NA,NA,NA,image-keyboard-response,188,799638,0.0-7.0-4.0-0.14,22,Study 22,Session 22,NA,4949,img/testing_events/Ab/Test_Ab_Event_11.jpg,c,response,c,NA,TRUE,Ab
NA,NA,NA,NA,NA,image-keyboard-response,189,806276,0.0-7.0-4.0-0.15,22,Study 22,Session 22,NA,6628,img/testing_events/Ab/Test_Ab_Event_12.jpg,n,response,n,NA,TRUE,Ab
NA,NA,NA,NA,NA,image-keyboard-response,190,807683,0.0-7.0-4.0-0.16,22,Study 22,Session 22,NA,1397,img/testing_events/Ab/Test_Ab_Event_19.jpg,c,response,c,NA,TRUE,Ab
NA,NA,NA,NA,NA,image-keyboard-response,191,812929,0.0-7.0-4.0-0.17,22,Study 22,Session 22,NA,5236,img/testing_events/Ab/Test_Ab_Event_2.jpg,u,response,u,NA,TRUE,Ab
NA,NA,NA,NA,NA,image-keyboard-response,192,816472,0.0-7.0-4.0-0.18,22,Study 22,Session 22,NA,3535,img/testing_events/Ab/Test_Ab_Event_17.jpg,e,response,e,NA,TRUE,Ab
NA,NA,NA,NA,NA,image-keyboard-response,193,818408,0.0-7.0-4.0-0.19,22,Study 22,Session 22,NA,1923,img/testing_events/Ab/Test_Ab_Event_22.jpg,u,response,u,NA,TRUE,Ab
NA,NA,NA,NA,NA,image-keyboard-response,194,824295,0.0-7.0-4.0-0.20,22,Study 22,Session 22,NA,5878,img/testing_events/Ab/Test_Ab_Event_18.jpg,u,response,u,NA,TRUE,Ab
NA,NA,NA,NA,NA,image-keyboard-response,195,829094,0.0-7.0-4.0-0.21,22,Study 22,Session 22,NA,4790,img/testing_events/Ab/Test_Ab_Event_20.jpg,n,response,n,NA,TRUE,Ab
NA,NA,NA,NA,NA,image-keyboard-response,196,837150,0.0-7.0-4.0-0.22,22,Study 22,Session 22,NA,8047,img/testing_events/Ab/Test_Ab_Event_6.jpg,c,response,u,NA,FALSE,Ab
NA,NA,NA,NA,NA,image-keyboard-response,197,838164,0.0-7.0-4.0-0.23,22,Study 22,Session 22,NA,1004,img/testing_events/Ab/Test_Ab_Event_9.jpg,e,response,e,NA,TRUE,Ab
NA,NA,NA,NA,NA,image-keyboard-response,198,843967,0.0-7.0-5.0-0.0,22,Study 22,Session 22,NA,5794,img/testing_events/Bc/Test_Bc_Event_1.jpg,n,response,n,NA,TRUE,Bc
NA,NA,NA,NA,NA,image-keyboard-response,199,848023,0.0-7.0-5.0-0.1,22,Study 22,Session 22,NA,4046,img/testing_events/Bc/Test_Bc_Event_6.jpg,e,response,e,NA,TRUE,Bc
NA,NA,NA,NA,NA,image-keyboard-response,200,849943,0.0-7.0-5.0-0.2,22,Study 22,Session 22,NA,1912,img/testing_events/Bc/Test_Bc_Event_17.jpg,n,response,n,NA,TRUE,Bc
NA,NA,NA,NA,NA,image-keyboard-response,201,852233,0.0-7.0-5.0-0.3,22,Study 22,Session 22,NA,2279,img/testing_events/Bc/Test_Bc_Event_23.jpg,c,response,u,NA,FALSE,Bc
NA,NA,NA,NA,NA,image-keyboard-response,202,855335,0.0-7.0-5.0-0.4,22,Study 22,Session 22,NA,3094,img/testing_events/Bc/Test_Bc_Event_19.jpg,u,response,u,NA,TRUE,Bc
NA,NA,NA,NA,NA,image-keyboard-response,203,856887,0.0-7.0-5.0-0.5,22,Study 22,Session 22,NA,1543,img/testing_events/Bc/Test_Bc_Event_14.jpg,e,response,e,NA,TRUE,Bc
NA,NA,NA,NA,NA,image-keyboard-response,204,857794,0.0-7.0-5.0-0.6,22,Study 22,Session 22,NA,898,img/testing_events/Bc/Test_Bc_Event_2.jpg,e,response,e,NA,TRUE,Bc
NA,NA,NA,NA,NA,image-keyboard-response,205,860479,0.0-7.0-5.0-0.7,22,Study 22,Session 22,NA,2676,img/testing_events/Bc/Test_Bc_Event_15.jpg,u,response,u,NA,TRUE,Bc
NA,NA,NA,NA,NA,image-keyboard-response,206,863263,0.0-7.0-5.0-0.8,22,Study 22,Session 22,NA,2772,img/testing_events/Bc/Test_Bc_Event_13.jpg,n,response,n,NA,TRUE,Bc
NA,NA,NA,NA,NA,image-keyboard-response,207,866607,0.0-7.0-5.0-0.9,22,Study 22,Session 22,NA,3335,img/testing_events/Bc/Test_Bc_Event_3.jpg,u,response,u,NA,TRUE,Bc
NA,NA,NA,NA,NA,image-keyboard-response,208,873273,0.0-7.0-5.0-0.10,22,Study 22,Session 22,NA,6657,img/testing_events/Bc/Test_Bc_Event_4.jpg,u,response,c,NA,FALSE,Bc
NA,NA,NA,NA,NA,image-keyboard-response,209,875510,0.0-7.0-5.0-0.11,22,Study 22,Session 22,NA,2230,img/testing_events/Bc/Test_Bc_Event_21.jpg,c,response,n,NA,FALSE,Bc
NA,NA,NA,NA,NA,image-keyboard-response,210,877110,0.0-7.0-5.0-0.12,22,Study 22,Session 22,NA,1590,img/testing_events/Bc/Test_Bc_Event_24.jpg,e,response,c,NA,FALSE,Bc
NA,NA,NA,NA,NA,image-keyboard-response,211,880558,0.0-7.0-5.0-0.13,22,Study 22,Session 22,NA,3439,img/testing_events/Bc/Test_Bc_Event_8.jpg,c,response,c,NA,TRUE,Bc
NA,NA,NA,NA,NA,image-keyboard-response,212,886652,0.0-7.0-5.0-0.14,22,Study 22,Session 22,NA,6085,img/testing_events/Bc/Test_Bc_Event_11.jpg,n,response,u,NA,FALSE,Bc
NA,NA,NA,NA,NA,image-keyboard-response,213,890084,0.0-7.0-5.0-0.15,22,Study 22,Session 22,NA,3422,img/testing_events/Bc/Test_Bc_Event_16.jpg,c,response,c,NA,TRUE,Bc
NA,NA,NA,NA,NA,image-keyboard-response,214,894803,0.0-7.0-5.0-0.16,22,Study 22,Session 22,NA,4711,img/testing_events/Bc/Test_Bc_Event_7.jpg,e,response,u,NA,FALSE,Bc
NA,NA,NA,NA,NA,image-keyboard-response,215,901422,0.0-7.0-5.0-0.17,22,Study 22,Session 22,NA,6610,img/testing_events/Bc/Test_Bc_Event_18.jpg,e,response,e,NA,TRUE,Bc
NA,NA,NA,NA,NA,image-keyboard-response,216,902555,0.0-7.0-5.0-0.18,22,Study 22,Session 22,NA,1124,img/testing_events/Bc/Test_Bc_Event_22.jpg,e,response,e,NA,TRUE,Bc
NA,NA,NA,NA,NA,image-keyboard-response,217,904659,0.0-7.0-5.0-0.19,22,Study 22,Session 22,NA,2094,img/testing_events/Bc/Test_Bc_Event_9.jpg,n,response,n,NA,TRUE,Bc
NA,NA,NA,NA,NA,image-keyboard-response,218,908787,0.0-7.0-5.0-0.20,22,Study 22,Session 22,NA,4119,img/testing_events/Bc/Test_Bc_Event_12.jpg,c,response,c,NA,TRUE,Bc
NA,NA,NA,NA,NA,image-keyboard-response,219,910412,0.0-7.0-5.0-0.21,22,Study 22,Session 22,NA,1613,img/testing_events/Bc/Test_Bc_Event_5.jpg,n,response,n,NA,TRUE,Bc
NA,NA,NA,NA,NA,image-keyboard-response,220,917531,0.0-7.0-5.0-0.22,22,Study 22,Session 22,NA,7110,img/testing_events/Bc/Test_Bc_Event_20.jpg,c,response,c,NA,TRUE,Bc
NA,NA,NA,NA,NA,image-keyboard-response,221,920395,0.0-7.0-5.0-0.23,22,Study 22,Session 22,NA,2854,img/testing_events/Bc/Test_Bc_Event_10.jpg,n,response,e,NA,FALSE,Bc
NA,NA,NA,NA,NA,survey-text,222,931197,0.0-8.0,22,Study 22,Session 22,NA,10795,NA,"{""Q0"":""No"",""Q1"":""No"",""Q2"":""""}",NA,NA,NA,NA,NA
NA,NA,NA,NA,NA,survey-html-form,223,963043,0.0-9.0,22,Study 22,Session 22,NA,31843,NA,"{""Gender"":""Male"",""Age"":""22"",""ColorBlind"":""No"",""Education"":""Some High School"",""Income"":""$100,000-$124,999"",""Race"":""White"",""Fluent"":""Yes"",""AgeEnglish"":""0"",""Country"":""USA""}",NA,NA,NA,NA,NA
TRUE,NA,NA,NA,NA,fullscreen,224,963044,0.0-10.0,22,Study 22,Session 22,NA,NA,NA,NA,NA,NA,NA,NA,NA
