success,timeout,failed_images,failed_audio,failed_video,trial_type,trial_index,time_elapsed,internal_node_id,subject_id,study_id,session_id,view_history,rt,stimulus,response,task,correct_response,attention_duration,correct,retrieval_group
TRUE,FALSE,[],[],[],preload,0,9933,0.0-0.0,25,Study 25,Session 25,NA,NA,NA,NA,NA,NA,NA,NA,NA
TRUE,NA,NA,NA,NA,fullscreen,1,26510,0.0-1.0,25,Study 25,Session 25,NA,NA,NA,NA,NA,NA,NA,NA,NA
NA,NA,NA,NA,NA,instructions,2,32475,0.0-2.0,25,Study 25,Session 25,"[{""page_index"":0,""viewing_time"":5965}]",5965,NA,NA,NA,NA,NA,NA,NA
NA,NA,NA,NA,NA,html-keyboard-response,3,37427,0.0-3.0,25,Study 25,Session 25,NA,4950,"Welcome to the experiment. <br /><br />This experiment will take about 20 minutes. Please complete all in one sitting. <br /><br />For this study, <strong>please use</strong> a laptop or desktop computer (not a mobile phone or tablet). Also, please use either <u>Chrome or Firefox</u>. <br /><br />Once you begin, <strong>DO NOT</strong> refresh the browser, as the experiment will reset and you will lose your progress. <br /><br />Press the <strong class=""upperline"">B</strong> key on your keyboard to begin.",b,NA,NA,NA,NA,NA
NA,NA,NA,NA,NA,instructions,4,54305,0.0-4.0,25,Study 25,Session 25,"[{""page_index"":0,""viewing_time"":3883},{""page_index"":1,""viewing_time"":9722},{""page_index"":2,""viewing_time"":2269}]",15874,NA,NA,NA,NA,NA,NA,NA
NA,NA,NA,NA,NA,html-keyboard-response,5,57306,0.0-5.0-0.0,25,Study 25,Session 25,NA,null,"<div style=""font-size:60px;"">+</div>",null,fixation,NA,NA,NA,NA
NA,NA,NA,NA,NA,image-keyboard-response,6,63319,0.0-5.0-1.0,25,Study 25,Session 25,NA,null,img/encoding_events/Event_1.jpg,null,NA,NA,NA,NA,NA
NA,NA,NA,NA,NA,html-keyboard-response,7,63320,0.0-5.0-2.0,25,Study 25,Session 25,NA,null,Please press the <strong><u>k</u></strong> key to continue,null,response,k,0,FALSE,NA
NA,NA,NA,NA,NA,html-keyboard-response,8,63826,0.0-5.0-0.1,25,Study 25,Session 25,NA,null,"<div style=""font-size:60px;"">+</div>",null,fixation,NA,NA,NA,NA
NA,NA,NA,NA,NA,image-keyboard-response,9,69827,0.0-5.0-1.1,25,Study 25,Session 25,NA,null,img/encoding_events/Event_3.jpg,null,NA,NA,NA,NA,NA
NA,NA,NA,NA,NA,html-keyboard-response,10,69832,0.0-5.0-2.1,25,Study 25,Session 25,NA,null,Please press the <strong><u>f</u></strong> key to continue,null,response,f,0,FALSE,NA
NA,NA,NA,NA,NA,html-keyboard-response,11,70334,0.0-5.0-0.2,25,Study 25,Session 25,NA,null,"<div style=""font-size:60px;"">+</div>",null,fixation,NA,NA,NA,NA
NA,NA,NA,NA,NA,image-keyboard-response,12,76336,0.0-5.0-1.2,25,Study 25,Session 25,NA,null,img/encoding_events/Event_2.jpg,null,NA,NA,NA,NA,NA
NA,NA,NA,NA,NA,html-keyboard-response,13,76341,0.0-5.0-2.2,25,Study 25,Session 25,NA,null,Please press the <strong><u>a</u></strong> key to continue,null,response,a,0,FALSE,NA
NA,NA,NA,NA,NA,html-keyboard-response,14,76842,0.0-5.0-0.3,25,Study 25,Session 25,NA,null,"<div style=""font-size:60px;"">+</div>",null,fixation,NA,NA,NA,NA
NA,NA,NA,NA,NA,image-keyboard-response,15,82843,0.0-5.0-1.3,25,Study 25,Session 25,NA,null,img/encoding_events/Event_10.jpg,null,NA,NA,NA,NA,NA
NA,NA,NA,NA,NA,html-keyboard-response,16,84133,0.0-5.0-2.3,25,Study 25,Session 25,NA,1289,Please press the <strong><u>f</u></strong> key to continue,f,response,f,6000,TRUE,NA
NA,NA,NA,NA,NA,html-keyboard-response,17,84634,0.0-5.0-0.4,25,Study 25,Session 25,NA,null,"<div style=""font-size:60px;"">+</div>",null,fixation,NA,NA,NA,NA
NA,NA,NA,NA,NA,image-keyboard-response,18,90636,0.0-5.0-1.4,25,Study 25,Session 25,NA,null,img/encoding_events/Event_9.jpg,null,NA,NA,NA,NA,NA
NA,NA,NA,NA,NA,html-keyboard-response,19,90637,0.0-5.0-2.4,25,Study 25,Session 25,NA,null,Please press the <strong><u>a</u></strong> key to continue,null,response,a,0,FALSE,NA
NA,NA,NA,NA,NA,html-keyboard-response,20,91138,0.0-5.0-0.5,25,Study 25,Session 25,NA,null,"<div style=""font-size:60px;"">+</div>",null,fixation,NA,NA,NA,NA
NA,NA,NA,NA,NA,image-keyboard-response,21,97139,0.0-5.0-1.5,25,Study 25,Session 25,NA,null,img/encoding_events/Event_7.jpg,null,NA,NA,NA,NA,NA
NA,NA,NA,NA,NA,html-keyboard-response,22,97144,0.0-5.0-2.5,25,Study 25,Session 25,NA,null,Please press the <strong><u>d</u></strong> key to continue,null,response,d,0,FALSE,NA
NA,NA,NA,NA,NA,html-keyboard-response,23,97645,0.0-5.0-0.6,25,Study 25,Session 25,NA,null,"<div style=""font-size:60px;"">+</div>",null,fixation,NA,NA,NA,NA
NA,NA,NA,NA,NA,image-keyboard-response,24,103647,0.0-5.0-1.6,25,Study 25,Session 25,NA,null,img/encoding_events/Event_24.jpg,null,NA,NA,NA,NA,NA
NA,NA,NA,NA,NA,html-keyboard-response,25,103652,0.0-5.0-2.6,25,Study 25,Session 25,NA,null,Please press the <strong><u>d</u></strong> key to continue,null,response,d,0,FALSE,NA
NA,NA,NA,NA,NA,html-keyboard-response,26,104153,0.0-5.0-0.7,25,Study 25,Session 25,NA,null,"<div style=""font-size:60px;"">+</div>",null,fixation,NA,NA,NA,NA
NA,NA,NA,NA,NA,image-keyboard-response,27,110155,0.0-5.0-1.7,25,Study 25,Session 25,NA,null,img/encoding_events/Event_4.jpg,null,NA,NA,NA,NA,NA
NA,NA,NA,NA,NA,html-keyboard-response,28,111837,0.0-5.0-2.7,25,Study 25,Session 25,NA,1682,Please press the <strong><u>s</u></strong> key to continue,s,response,s,6000,TRUE,NA
NA,NA,NA,NA,NA,html-keyboard-response,29,112338,0.0-5.0-0.8,25,Study 25,Session 25,NA,null,"<div style=""font-size:60px;"">+</div>",null,fixation,NA,NA,NA,NA
NA,NA,NA,NA,NA,image-keyboard-response,30,118350,0.0-5.0-1.8,25,Study 25,Session 25,NA,null,img/encoding_events/Event_12.jpg,null,NA,NA,NA,NA,NA
NA,NA,NA,NA,NA,html-keyboard-response,31,118351,0.0-5.0-2.8,25,Study 25,Session 25,NA,null,Please press the <strong><u>j</u></strong> key to continue,null,response,j,0,FALSE,NA
NA,NA,NA,NA,NA,html-keyboard-response,32,118852,0.0-5.0-0.9,25,Study 25,Session 25,NA,null,"<div style=""font-size:60px;"">+</div>",null,fixation,NA,NA,NA,NA
NA,NA,NA,NA,NA,image-keyboard-response,33,124854,0.0-5.0-1.9,25,Study 25,Session 25,NA,null,img/encoding_events/Event_11.jpg,null,NA,NA,NA,NA,NA
NA,NA,NA,NA,NA,html-keyboard-response,34,124860,0.0-5.0-2.9,25,Study 25,Session 25,NA,null,Please press the <strong><u>d</u></strong> key to continue,null,response,d,0,FALSE,NA
NA,NA,NA,NA,NA,html-keyboard-response,35,125361,0.0-5.0-0.10,25,Study 25,Session 25,NA,null,"<div style=""font-size:60px;"">+</div>",null,fixation,NA,NA,NA,NA
NA,NA,NA,NA,NA,image-keyboard-response,36,131363,0.0-5.0-1.10,25,Study 25,Session 25,NA,null,img/encoding_events/Event_18.jpg,null,NA,NA,NA,NA,NA
NA,NA,NA,NA,NA,html-keyboard-response,37,131368,0.0-5.0-2.10,25,Study 25,Session 25,NA,null,Please press the <strong><u>f</u></strong> key to continue,null,response,f,0,FALSE,NA
NA,NA,NA,NA,NA,html-keyboard-response,38,131869,0.0-5.0-0.11,25,Study 25,Session 25,NA,null,"<div style=""font-size:60px;"">+</div>",null,fixation,NA,NA,NA,NA
NA,NA,NA,NA,NA,image-keyboard-response,39,137871,0.0-5.0-1.11,25,Study 25,Session 25,NA,null,img/encoding_events/Event_13.jpg,null,NA,NA,NA,NA,NA
NA,NA,NA,NA,NA,html-keyboard-response,40,138970,0.0-5.0-2.11,25,Study 25,Session 25,NA,1098,Please press the <strong><u>f</u></strong> key to continue,f,response,f,6000,TRUE,NA
NA,NA,NA,NA,NA,html-keyboard-response,41,139471,0.0-5.0-0.12,25,Study 25,Session 25,NA,null,"<div style=""font-size:60px;"">+</div>",null,fixation,NA,NA,NA,NA
NA,NA,NA,NA,NA,image-keyboard-response,42,145473,0.0-5.0-1.12,25,Study 25,Session 25,NA,null,img/encoding_events/Event_5.jpg,null,NA,NA,NA,NA,NA
NA,NA,NA,NA,NA,html-keyboard-response,43,145474,0.0-5.0-2.12,25,Study 25,Session 25,NA,null,Please press the <strong><u>s</u></strong> key to continue,null,response,s,0,FALSE,NA
NA,NA,NA,NA,NA,html-keyboard-response,44,145974,0.0-5.0-0.13,25,Study 25,Session 25,NA,null,"<div style=""font-size:60px;"">+</div>",null,fixation,NA,NA,NA,NA
NA,NA,NA,NA,NA,image-keyboard-response,45,151976,0.0-5.0-1.13,25,Study 25,Session 25,NA,null,img/encoding_events/Event_6.jpg,null,NA,NA,NA,NA,NA
NA,NA,NA,NA,NA,html-keyboard-response,46,151982,0.0-5.0-2.13,25,Study 25,Session 25,NA,null,Please press the <strong><u>f</u></strong> key to continue,null,response,f,0,FALSE,NA
NA,NA,NA,NA,NA,html-keyboard-response,47,152483,0.0-5.0-0.14,25,Study 25,Session 25,NA,null,"<div style=""font-size:60px;"">+</div>",null,fixation,NA,NA,NA,NA
NA,NA,NA,NA,NA,image-keyboard-response,48,158484,0.0-5.0-1.14,25,Study 25,Session 25,NA,null,img/encoding_events/Event_23.jpg,null,NA,NA,NA,NA,NA
NA,NA,NA,NA,NA,html-keyboard-response,49,158490,0.0-5.0-2.14,25,Study 25,Session 25,NA,null,Please press the <strong><u>j</u></strong> key to continue,null,response,j,0,FALSE,NA
NA,NA,NA,NA,NA,html-keyboard-response,50,158991,0.0-5.0-0.15,25,Study 25,Session 25,NA,null,"<div style=""font-size:60px;"">+</div>",null,fixation,NA,NA,NA,NA
NA,NA,NA,NA,NA,image-keyboard-response,51,164993,0.0-5.0-1.15,25,Study 25,Session 25,NA,null,img/encoding_events/Event_15.jpg,null,NA,NA,NA,NA,NA
NA,NA,NA,NA,NA,html-keyboard-response,52,166686,0.0-5.0-2.15,25,Study 25,Session 25,NA,1692,Please press the <strong><u>a</u></strong> key to continue,a,response,a,6000,TRUE,NA
NA,NA,NA,NA,NA,html-keyboard-response,53,167187,0.0-5.0-0.16,25,Study 25,Session 25,NA,null,"<div style=""font-size:60px;"">+</div>",null,fixation,NA,NA,NA,NA
NA,NA,NA,NA,NA,image-keyboard-response,54,173189,0.0-5.0-1.16,25,Study 25,Session 25,NA,null,img/encoding_events/Event_14.jpg,null,NA,NA,NA,NA,NA
NA,NA,NA,NA,NA,html-keyboard-response,55,173190,0.0-5.0-2.16,25,Study 25,Session 25,NA,null,Please press the <strong><u>j</u></strong> key to continue,null,response,j,0,FALSE,NA
NA,NA,NA,NA,NA,html-keyboard-response,56,173691,0.0-5.0-0.17,25,Study 25,Session 25,NA,null,"<div style=""font-size:60px;"">+</div>",null,fixation,NA,NA,NA,NA
NA,NA,NA,NA,NA,image-keyboard-response,57,179693,0.0-5.0-1.17,25,Study 25,Session 25,NA,null,img/encoding_events/Event_16.jpg,null,NA,NA,NA,NA,NA
NA,NA,NA,NA,NA,html-keyboard-response,58,179698,0.0-5.0-2.17,25,Study 25,Session 25,NA,null,Please press the <strong><u>k</u></strong> key to continue,null,response,k,0,FALSE,NA
NA,NA,NA,NA,NA,html-keyboard-response,59,180199,0.0-5.0-0.18,25,Study 25,Session 25,NA,null,"<div style=""font-size:60px;"">+</div>",null,fixation,NA,NA,NA,NA
NA,NA,NA,NA,NA,image-keyboard-response,60,186201,0.0-5.0-1.18,25,Study 25,Session 25,NA,null,img/encoding_events/Event_22.jpg,null,NA,NA,NA,NA,NA
NA,NA,NA,NA,NA,html-keyboard-response,61,186207,0.0-5.0-2.18,25,Study 25,Session 25,NA,null,Please press the <strong><u>d</u></strong> key to continue,null,response,d,0,FALSE,NA
NA,NA,NA,NA,NA,html-keyboard-response,62,186708,0.0-5.0-0.19,25,Study 25,Session 25,NA,null,"<div style=""font-size:60px;"">+</div>",null,fixation,NA,NA,NA,NA
NA,NA,NA,NA,NA,image-keyboard-response,63,192709,0.0-5.0-1.19,25,Study 25,Session 25,NA,null,img/encoding_events/Event_19.jpg,null,NA,NA,NA,NA,NA
NA,NA,NA,NA,NA,html-keyboard-response,64,196756,0.0-5.0-2.19,25,Study 25,Session 25,NA,4046,Please press the <strong><u>a</u></strong> key to continue,a,response,a,6000,TRUE,NA
NA,NA,NA,NA,NA,html-keyboard-response,65,197257,0.0-5.0-0.20,25,Study 25,Session 25,NA,null,"<div style=""font-size:60px;"">+</div>",null,fixation,NA,NA,NA,NA
NA,NA,NA,NA,NA,image-keyboard-response,66,203259,0.0-5.0-1.20,25,Study 25,Session 25,NA,null,img/encoding_events/Event_8.jpg,null,NA,NA,NA,NA,NA
NA,NA,NA,NA,NA,html-keyboard-response,67,203260,0.0-5.0-2.20,25,Study 25,Session 25,NA,null,Please press the <strong><u>f</u></strong> key to continue,null,response,f,0,FALSE,NA
NA,NA,NA,NA,NA,html-keyboard-response,68,203761,0.0-5.0-0.21,25,Study 25,Session 25,NA,null,"<div style=""font-size:60px;"">+</div>",null,fixation,NA,NA,NA,NA
NA,NA,NA,NA,NA,image-keyboard-response,69,209762,0.0-5.0-1.21,25,Study 25,Session 25,NA,null,img/encoding_events/Event_17.jpg,null,NA,NA,NA,NA,NA
NA,NA,NA,NA,NA,html-keyboard-response,70,209768,0.0-5.0-2.21,25,Study 25,Session 25,NA,null,Please press the <strong><u>k</u></strong> key to continue,null,response,k,0,FALSE,NA
NA,NA,NA,NA,NA,html-keyboard-response,71,210269,0.0-5.0-0.22,25,Study 25,Session 25,NA,null,"<div style=""font-size:60px;"">+</div>",null,fixation,NA,NA,NA,NA
NA,NA,NA,NA,NA,image-keyboard-response,72,216271,0.0-5.0-1.22,25,Study 25,Session 25,NA,null,img/encoding_events/Event_20.jpg,null,NA,NA,NA,NA,NA
NA,NA,NA,NA,NA,html-keyboard-response,73,216276,0.0-5.0-2.22,25,Study 25,Session 25,NA,null,Please press the <strong><u>f</u></strong> key to continue,null,response,f,0,FALSE,NA
NA,NA,NA,NA,NA,html-keyboard-response,74,216777,0.0-5.0-0.23,25,Study 25,Session 25,NA,null,"<div style=""font-size:60px;"">+</div>",null,fixation,NA,NA,NA,NA
NA,NA,NA,NA,NA,image-keyboard-response,75,222778,0.0-5.0-1.23,25,Study 25,Session 25,NA,null,img/encoding_events/Event_21.jpg,null,NA,NA,NA,NA,NA
NA,NA,NA,NA,NA,html-keyboard-response,76,224086,0.0-5.0-2.23,25,Study 25,Session 25,NA,1307,Please press the <strong><u>s</u></strong> key to continue,s,response,s,6000,TRUE,NA
NA,NA,NA,NA,NA,instructions,77,256940,0.0-6.0,25,Study 25,Session 25,"[{""page_index"":0,""viewing_time"":2262},{""page_index"":1,""viewing_time"":3129},{""page_index"":2,""viewing_time"":2811},{""page_index"":3,""viewing_time"":12781},{""page_index"":4,""viewing_time"":4577},{""page_index"":5,""viewing_time"":4870},{""page_index"":6,""viewing_time"":2423}]",32853,NA,NA,NA,NA,NA,NA,NA
NA,NA,NA,NA,NA,image-keyboard-response,78,266858,0.0-7.0-0.0-0.0,25,Study 25,Session 25,NA,7415,img/testing_events/Ca/Test_Ca_Event_6.jpg,u,response,u,NA,TRUE,Ca
NA,NA,NA,NA,NA,image-keyboard-response,79,271722,0.0-7.0-0.0-0.1,25,Study 25,Session 25,NA,4863,img/testing_events/Ca/Test_Ca_Event_7.jpg,c,response,c,NA,TRUE,Ca
NA,NA,NA,NA,NA,image-keyboard-response,80,274380,0.0-7.0-0.0-0.2,25,Study 25,Session 25,NA,2657,img/testing_events/Ca/Test_Ca_Event_5.jpg,e,response,e,NA,TRUE,Ca
NA,NA,NA,NA,NA,image-keyboard-response,81,277356,0.0-7.0-0.0-0.3,25,Study 25,Session 25,NA,2975,img/testing_events/Ca/Test_Ca_Event_20.jpg,n,response,n,NA,TRUE,Ca
NA,NA,NA,NA,NA,image-keyboard-response,82,282353,0.0-7.0-0.0-0.4,25,Study 25,Session 25,NA,4996,img/testing_events/Ca/Test_Ca_Event_19.jpg,c,response,c,NA,TRUE,Ca
NA,NA,NA,NA,NA,image-keyboard-response,83,284541,0.0-7.0-0.0-0.5,25,Study 25,Session 25,NA,2187,img/testing_events/Ca/Test_Ca_Event_22.jpg,e,response,u,NA,FALSE,Ca
NA,NA,NA,NA,NA,image-keyboard-response,84,286924,0.0-7.0-0.0-0.6,25,Study 25,Session 25,NA,2382,img/testing_events/Ca/Test_Ca_Event_3.jpg,c,response,c,NA,TRUE,Ca
NA,NA,NA,NA,NA,image-keyboard-response,85,291993,0.0-7.0-0.0-0.7,25,Study 25,Session 25,NA,5068,img/testing_events/Ca/Test_Ca_Event_9.jpg,c,response,e,NA,FALSE,Ca
NA,NA,NA,NA,NA,image-keyboard-response,86,295096,0.0-7.0-0.0-0.8,25,Study 25,Session 25,NA,3102,img/testing_events/Ca/Test_Ca_Event_4.jpg,n,response,n,NA,TRUE,Ca
NA,NA,NA,NA,NA,image-keyboard-response,87,301771,0.0-7.0-0.0-0.9,25,Study 25,Session 25,NA,6674,img/testing_events/Ca/Test_Ca_Event_17.jpg,u,response,e,NA,FALSE,Ca
NA,NA,NA,NA,NA,image-keyboard-response,88,303656,0.0-7.0-0.0-0.10,25,Study 25,Session 25,NA,1884,img/testing_events/Ca/Test_Ca_Event_24.jpg,e,response,n,NA,FALSE,Ca
NA,NA,NA,NA,NA,image-keyboard-response,89,305139,0.0-7.0-0.0-0.11,25,Study 25,Session 25,NA,1482,img/testing_events/Ca/Test_Ca_Event_15.jpg,c,response,c,NA,TRUE,Ca
NA,NA,NA,NA,NA,image-keyboard-response,90,308727,0.0-7.0-0.0-0.12,25,Study 25,Session 25,NA,3587,img/testing_events/Ca/Test_Ca_Event_14.jpg,n,response,u,NA,FALSE,Ca
NA,NA,NA,NA,NA,image-keyboard-response,91,310819,0.0-7.0-0.0-0.13,25,Study 25,Session 25,NA,2091,img/testing_events/Ca/Test_Ca_Event_12.jpg,n,response,n,NA,TRUE,Ca
NA,NA,NA,NA,NA,image-keyboard-response,92,315870,0.0-7.0-0.0-0.14,25,Study 25,Session 25,NA,5051,img/testing_events/Ca/Test_Ca_Event_18.jpg,u,response,u,NA,TRUE,Ca
NA,NA,NA,NA,NA,image-keyboard-response,93,321399,0.0-7.0-0.0-0.15,25,Study 25,Session 25,NA,5528,img/testing_events/Ca/Test_Ca_Event_1.jpg,u,response,e,NA,FALSE,Ca
NA,NA,NA,NA,NA,image-keyboard-response,94,322760,0.0-7.0-0.0-0.16,25,Study 25,Session 25,NA,1360,img/testing_events/Ca/Test_Ca_Event_11.jpg,c,response,c,NA,TRUE,Ca
NA,NA,NA,NA,NA,image-keyboard-response,95,324881,0.0-7.0-0.0-0.17,25,Study 25,Session 25,NA,2120,img/testing_events/Ca/Test_Ca_Event_21.jpg,u,response,e,NA,FALSE,Ca
NA,NA,NA,NA,NA,image-keyboard-response,96,327281,0.0-7.0-0.0-0.18,25,Study 25,Session 25,NA,2399,img/testing_events/Ca/Test_Ca_Event_8.jpg,c,response,n,NA,FALSE,Ca
NA,NA,NA,NA,NA,image-keyboard-response,97,329420,0.0-7.0-0.0-0.19,25,Study 25,Session 25,NA,2138,img/testing_events/Ca/Test_Ca_Event_16.jpg,n,response,n,NA,TRUE,Ca
NA,NA,NA,NA,NA,image-keyboard-response,98,331513,0.0-7.0-0.0-0.20,25,Study 25,Session 25,NA,2092,img/testing_events/Ca/Test_Ca_Event_10.jpg,u,response,u,NA,TRUE,Ca
NA,NA,NA,NA,NA,image-keyboard-response,99,338255,0.0-7.0-0.0-0.21,25,Study 25,Session 25,NA,6741,img/testing_events/Ca/Test_Ca_Event_2.jpg,e,response,u,NA,FALSE,Ca
NA,NA,NA,NA,NA,image-keyboard-response,100,340446,0.0-7.0-0.0-0.22,25,Study 25,Session 25,NA,2190,img/testing_events/Ca/Test_Ca_Event_23.jpg,c,response,c,NA,TRUE,Ca
NA,NA,NA,NA,NA,image-keyboard-response,101,343038,0.0-7.0-0.0-0.23,25,Study 25,Session 25,NA,2591,img/testing_events/Ca/Test_Ca_Event_13.jpg,n,response,e,NA,FALSE,Ca
NA,NA,NA,NA,NA,image-keyboard-response,102,348414,0.0-7.0-1.0-0.0,25,Study 25,Session 25,NA,5375,img/testing_events/Ab/Test_Ab_Event_23.jpg,u,response,c,NA,FALSE,Ab
NA,NA,NA,NA,NA,image-keyboard-response,103,352758,0.0-7.0-1.0-0.1,25,Study 25,Session 25,NA,4343,img/testing_events/Ab/Test_Ab_Event_24.jpg,e,response,n,NA,FALSE,Ab
NA,NA,NA,NA,NA,image-keyboard-response,104,354605,0.0-7.0-1.0-0.2,25,Study 25,Session 25,NA,1846,img/testing_events/Ab/Test_Ab_Event_18.jpg,u,response,u,NA,TRUE,Ab
NA,NA,NA,NA,NA,image-keyboard-response,105,357380,0.0-7.0-1.0-0.3,25,Study 25,Session 25,NA,2774,img/testing_events/Ab/Test_Ab_Event_8.jpg,c,response,n,NA,FALSE,Ab
NA,NA,NA,NA,NA,image-keyboard-response,106,358554,0.0-7.0-1.0-0.4,25,Study 25,Session 25,NA,1173,img/testing_events/Ab/Test_Ab_Event_15.jpg,c,response,c,NA,TRUE,Ab
NA,NA,NA,NA,NA,image-keyboard-response,107,363035,0.0-7.0-1.0-0.5,25,Study 25,Session 25,NA,4480,img/testing_events/Ab/Test_Ab_Event_2.jpg,u,response,u,NA,TRUE,Ab
NA,NA,NA,NA,NA,image-keyboard-response,108,366930,0.0-7.0-1.0-0.6,25,Study 25,Session 25,NA,3894,img/testing_events/Ab/Test_Ab_Event_9.jpg,u,response,e,NA,FALSE,Ab
NA,NA,NA,NA,NA,image-keyboard-response,109,371719,0.0-7.0-1.0-0.7,25,Study 25,Session 25,NA,4788,img/testing_events/Ab/Test_Ab_Event_10.jpg,u,response,u,NA,TRUE,Ab
NA,NA,NA,NA,NA,image-keyboard-response,110,375223,0.0-7.0-1.0-0.8,25,Study 25,Session 25,NA,3503,img/testing_events/Ab/Test_Ab_Event_22.jpg,u,response,u,NA,TRUE,Ab
NA,NA,NA,NA,NA,image-keyboard-response,111,378300,0.0-7.0-1.0-0.9,25,Study 25,Session 25,NA,3075,img/testing_events/Ab/Test_Ab_Event_6.jpg,n,response,u,NA,FALSE,Ab
NA,NA,NA,NA,NA,image-keyboard-response,112,380089,0.0-7.0-1.0-0.10,25,Study 25,Session 25,NA,1788,img/testing_events/Ab/Test_Ab_Event_14.jpg,n,response,u,NA,FALSE,Ab
NA,NA,NA,NA,NA,image-keyboard-response,113,384798,0.0-7.0-1.0-0.11,25,Study 25,Session 25,NA,4708,img/testing_events/Ab/Test_Ab_Event_7.jpg,c,response,c,NA,TRUE,Ab
NA,NA,NA,NA,NA,image-keyboard-response,114,387814,0.0-7.0-1.0-0.12,25,Study 25,Session 25,NA,3016,img/testing_events/Ab/Test_Ab_Event_21.jpg,c,response,e,NA,FALSE,Ab
NA,NA,NA,NA,NA,image-keyboard-response,115,390497,0.0-7.0-1.0-0.13,25,Study 25,Session 25,NA,2682,img/testing_events/Ab/Test_Ab_Event_16.jpg,c,response,n,NA,FALSE,Ab
NA,NA,NA,NA,NA,image-keyboard-response,116,391796,0.0-7.0-1.0-0.14,25,Study 25,Session 25,NA,1298,img/testing_events/Ab/Test_Ab_Event_19.jpg,e,response,c,NA,FALSE,Ab
NA,NA,NA,NA,NA,image-keyboard-response,117,393967,0.0-7.0-1.0-0.15,25,Study 25,Session 25,NA,2170,img/testing_events/Ab/Test_Ab_Event_13.jpg,u,response,e,NA,FALSE,Ab
NA,NA,NA,NA,NA,image-keyboard-response,118,396440,0.0-7.0-1.0-0.16,25,Study 25,Session 25,NA,2472,img/testing_events/Ab/Test_Ab_Event_11.jpg,c,response,c,NA,TRUE,Ab
NA,NA,NA,NA,NA,image-keyboard-response,119,398204,0.0-7.0-1.0-0.17,25,Study 25,Session 25,NA,1763,img/testing_events/Ab/Test_Ab_Event_12.jpg,n,response,n,NA,TRUE,Ab
NA,NA,NA,NA,NA,image-keyboard-response,120,399616,0.0-7.0-1.0-0.18,25,Study 25,Session 25,NA,1411,img/testing_events/Ab/Test_Ab_Event_3.jpg,c,response,c,NA,TRUE,Ab
NA,NA,NA,NA,NA,image-keyboard-response,121,404047,0.0-7.0-1.0-0.19,25,Study 25,Session 25,NA,4430,img/testing_events/Ab/Test_Ab_Event_17.jpg,c,response,e,NA,FALSE,Ab
NA,NA,NA,NA,NA,image-keyboard-response,122,406092,0.0-7.0-1.0-0.20,25,Study 25,Session 25,NA,2044,img/testing_events/Ab/Test_Ab_Event_4.jpg,n,response,n,NA,TRUE,Ab
NA,NA,NA,NA,NA,image-keyboard-response,123,408399,0.0-7.0-1.0-0.21,25,Study 25,Session 25,NA,2306,img/testing_events/Ab/Test_Ab_Event_1.jpg,e,response,e,NA,TRUE,Ab
NA,NA,NA,NA,NA,image-keyboard-response,124,411341,0.0-7.0-1.0-0.22,25,Study 25,Session 25,NA,2942,img/testing_events/Ab/Test_Ab_Event_5.jpg,c,response,e,NA,FALSE,Ab
NA,NA,NA,NA,NA,image-keyboard-response,125,415215,0.0-7.0-1.0-0.23,25,Study 25,Session 25,NA,3874,img/testing_events/Ab/Test_Ab_Event_20.jpg,u,response,n,NA,FALSE,Ab
NA,NA,NA,NA,NA,image-keyboard-response,126,418085,0.0-7.0-2.0-0.0,25,Study 25,Session 25,NA,2869,img/testing_events/Cb/Test_Cb_Event_8.jpg,n,response,e,NA,FALSE,Cb
NA,NA,NA,NA,NA,image-keyboard-response,127,419322,0.0-7.0-2.0-0.1,25,Study 25,Session 25,NA,1236,img/testing_events/Cb/Test_Cb_Event_3.jpg,u,response,n,NA,FALSE,Cb
NA,NA,NA,NA,NA,image-keyboard-response,128,421730,0.0-7.0-2.0-0.2,25,Study 25,Session 25,NA,2407,img/testing_events/Cb/Test_Cb_Event_1.jpg,u,response,u,NA,TRUE,Cb
NA,NA,NA,NA,NA,image-keyboard-response,129,423034,0.0-7.0-2.0-0.3,25,Study 25,Session 25,NA,1303,img/testing_events/Cb/Test_Cb_Event_14.jpg,n,response,c,NA,FALSE,Cb
NA,NA,NA,NA,NA,image-keyboard-response,130,425831,0.0-7.0-2.0-0.4,25,Study 25,Session 25,NA,2796,img/testing_events/Cb/Test_Cb_Event_5.jpg,u,response,u,NA,TRUE,Cb
NA,NA,NA,NA,NA,image-keyboard-response,131,427234,0.0-7.0-2.0-0.5,25,Study 25,Session 25,NA,1402,img/testing_events/Cb/Test_Cb_Event_16.jpg,e,response,e,NA,TRUE,Cb
NA,NA,NA,NA,NA,image-keyboard-response,132,427549,0.0-7.0-2.0-0.6,25,Study 25,Session 25,NA,314,img/testing_events/Cb/Test_Cb_Event_21.jpg,e,response,u,NA,FALSE,Cb
NA,NA,NA,NA,NA,image-keyboard-response,133,434700,0.0-7.0-2.0-0.7,25,Study 25,Session 25,NA,7150,img/testing_events/Cb/Test_Cb_Event_4.jpg,e,response,e,NA,TRUE,Cb
NA,NA,NA,NA,NA,image-keyboard-response,134,438129,0.0-7.0-2.0-0.8,25,Study 25,Session 25,NA,3428,img/testing_events/Cb/Test_Cb_Event_15.jpg,n,response,n,NA,TRUE,Cb
NA,NA,NA,NA,NA,image-keyboard-response,135,441373,0.0-7.0-2.0-0.9,25,Study 25,Session 25,NA,3243,img/testing_events/Cb/Test_Cb_Event_17.jpg,e,response,u,NA,FALSE,Cb
NA,NA,NA,NA,NA,image-keyboard-response,136,443725,0.0-7.0-2.0-0.10,25,Study 25,Session 25,NA,2351,img/testing_events/Cb/Test_Cb_Event_11.jpg,n,response,n,NA,TRUE,Cb
NA,NA,NA,NA,NA,image-keyboard-response,137,448487,0.0-7.0-2.0-0.11,25,Study 25,Session 25,NA,4761,img/testing_events/Cb/Test_Cb_Event_12.jpg,u,response,e,NA,FALSE,Cb
NA,NA,NA,NA,NA,image-keyboard-response,138,450053,0.0-7.0-2.0-0.12,25,Study 25,Session 25,NA,1565,img/testing_events/Cb/Test_Cb_Event_22.jpg,u,response,c,NA,FALSE,Cb
NA,NA,NA,NA,NA,image-keyboard-response,139,452097,0.0-7.0-2.0-0.13,25,Study 25,Session 25,NA,2044,img/testing_events/Cb/Test_Cb_Event_23.jpg,e,response,n,NA,FALSE,Cb
NA,NA,NA,NA,NA,image-keyboard-response,140,453940,0.0-7.0-2.0-0.14,25,Study 25,Session 25,NA,1842,img/testing_events/Cb/Test_Cb_Event_9.jpg,c,response,u,NA,FALSE,Cb
NA,NA,NA,NA,NA,image-keyboard-response,141,458053,0.0-7.0-2.0-0.15,25,Study 25,Session 25,NA,4112,img/testing_events/Cb/Test_Cb_Event_20.jpg,c,response,e,NA,FALSE,Cb
NA,NA,NA,NA,NA,image-keyboard-response,142,459729,0.0-7.0-2.0-0.16,25,Study 25,Session 25,NA,1675,img/testing_events/Cb/Test_Cb_Event_13.jpg,u,response,u,NA,TRUE,Cb
NA,NA,NA,NA,NA,image-keyboard-response,143,460598,0.0-7.0-2.0-0.17,25,Study 25,Session 25,NA,868,img/testing_events/Cb/Test_Cb_Event_24.jpg,c,response,e,NA,FALSE,Cb
NA,NA,NA,NA,NA,image-keyboard-response,144,462538,0.0-7.0-2.0-0.18,25,Study 25,Session 25,NA,1939,img/testing_events/Cb/Test_Cb_Event_10.jpg,n,response,c,NA,FALSE,Cb
NA,NA,NA,NA,NA,image-keyboard-response,145,464547,0.0-7.0-2.0-0.19,25,Study 25,Session 25,NA,2008,img/testing_events/Cb/Test_Cb_Event_19.jpg,e,response,n,NA,FALSE,Cb
NA,NA,NA,NA,NA,image-keyboard-response,146,465643,0.0-7.0-2.0-0.20,25,Study 25,Session 25,NA,1095,img/testing_events/Cb/Test_Cb_Event_2.jpg,u,response,c,NA,FALSE,Cb
NA,NA,NA,NA,NA,image-keyboard-response,147,467637,0.0-7.0-2.0-0.21,25,Study 25,Session 25,NA,1993,img/testing_events/Cb/Test_Cb_Event_6.jpg,c,response,c,NA,TRUE,Cb
NA,NA,NA,NA,NA,image-keyboard-response,148,468677,0.0-7.0-2.0-0.22,25,Study 25,Session 25,NA,1039,img/testing_events/Cb/Test_Cb_Event_7.jpg,u,response,n,NA,FALSE,Cb
NA,NA,NA,NA,NA,image-keyboard-response,149,470629,0.0-7.0-2.0-0.23,25,Study 25,Session 25,NA,1951,img/testing_events/Cb/Test_Cb_Event_18.jpg,e,response,c,NA,FALSE,Cb
NA,NA,NA,NA,NA,image-keyboard-response,150,472010,0.0-7.0-3.0-0.0,25,Study 25,Session 25,NA,1371,img/testing_events/Bc/Test_Bc_Event_24.jpg,u,response,c,NA,FALSE,Bc
NA,NA,NA,NA,NA,image-keyboard-response,151,475039,0.0-7.0-3.0-0.1,25,Study 25,Session 25,NA,3028,img/testing_events/Bc/Test_Bc_Event_15.jpg,u,response,u,NA,TRUE,Bc
NA,NA,NA,NA,NA,image-keyboard-response,152,478483,0.0-7.0-3.0-0.2,25,Study 25,Session 25,NA,3444,img/testing_events/Bc/Test_Bc_Event_8.jpg,n,response,c,NA,FALSE,Bc
NA,NA,NA,NA,NA,image-keyboard-response,153,482254,0.0-7.0-3.0-0.3,25,Study 25,Session 25,NA,3770,img/testing_events/Bc/Test_Bc_Event_20.jpg,c,response,c,NA,TRUE,Bc
NA,NA,NA,NA,NA,image-keyboard-response,154,486088,0.0-7.0-3.0-0.4,25,Study 25,Session 25,NA,3833,img/testing_events/Bc/Test_Bc_Event_12.jpg,c,response,c,NA,TRUE,Bc
NA,NA,NA,NA,NA,image-keyboard-response,155,488768,0.0-7.0-3.0-0.5,25,Study 25,Session 25,NA,2679,img/testing_events/Bc/Test_Bc_Event_5.jpg,u,response,n,NA,FALSE,Bc
NA,NA,NA,NA,NA,image-keyboard-response,156,490594,0.0-7.0-3.0-0.6,25,Study 25,Session 25,NA,1825,img/testing_events/Bc/Test_Bc_Event_9.jpg,n,response,n,NA,TRUE,Bc
NA,NA,NA,NA,NA,image-keyboard-response,157,495791,0.0-7.0-3.0-0.7,25,Study 25,Session 25,NA,5196,img/testing_events/Bc/Test_Bc_Event_23.jpg,e,response,u,NA,FALSE,Bc
NA,NA,NA,NA,NA,image-keyboard-response,158,497367,0.0-7.0-3.0-0.8,25,Study 25,Session 25,NA,1575,img/testing_events/Bc/Test_Bc_Event_6.jpg,u,response,e,NA,FALSE,Bc
NA,NA,NA,NA,NA,image-keyboard-response,159,500964,0.0-7.0-3.0-0.9,25,Study 25,Session 25,NA,3597,img/testing_events/Bc/Test_Bc_Event_18.jpg,n,response,e,NA,FALSE,Bc
NA,NA,NA,NA,NA,image-keyboard-response,160,503242,0.0-7.0-3.0-0.10,25,Study 25,Session 25,NA,2276,img/testing_events/Bc/Test_Bc_Event_7.jpg,u,response,u,NA,TRUE,Bc
NA,NA,NA,NA,NA,image-keyboard-response,161,505566,0.0-7.0-3.0-0.11,25,Study 25,Session 25,NA,2323,img/testing_events/Bc/Test_Bc_Event_13.jpg,n,response,n,NA,TRUE,Bc
NA,NA,NA,NA,NA,image-keyboard-response,162,508436,0.0-7.0-3.0-0.12,25,Study 25,Session 25,NA,2869,img/testing_events/Bc/Test_Bc_Event_10.jpg,e,response,e,NA,TRUE,Bc
NA,NA,NA,NA,NA,image-keyboard-response,163,510081,0.0-7.0-3.0-0.13,25,Study 25,Session 25,NA,1644,img/testing_events/Bc/Test_Bc_Event_14.jpg,n,response,e,NA,FALSE,Bc
NA,NA,NA,NA,NA,image-keyboard-response,164,512808,0.0-7.0-3.0-0.14,25,Study 25,Session 25,NA,2726,img/testing_events/Bc/Test_Bc_Event_16.jpg,u,response,c,NA,FALSE,Bc
NA,NA,NA,NA,NA,image-keyboard-response,165,514737,0.0-7.0-3.0-0.15,25,Study 25,Session 25,NA,1928,img/testing_events/Bc/Test_Bc_Event_19.jpg,c,response,u,NA,FALSE,Bc
NA,NA,NA,NA,NA,image-keyboard-response,166,516010,0.0-7.0-3.0-0.16,25,Study 25,Session 25,NA,1272,img/testing_events/Bc/Test_Bc_Event_17.jpg,e,response,n,NA,FALSE,Bc
NA,NA,NA,NA,NA,image-keyboard-response,167,517561,0.0-7.0-3.0-0.17,25,Study 25,Session 25,NA,1550,img/testing_events/Bc/Test_Bc_Event_21.jpg,n,response,n,NA,TRUE,Bc
NA,NA,NA,NA,NA,image-keyboard-response,168,519434,0.0-7.0-3.0-0.18,25,Study 25,Session 25,NA,1872,img/testing_events/Bc/Test_Bc_Event_4.jpg,c,response,c,NA,TRUE,Bc
NA,NA,NA,NA,NA,image-keyboard-response,169,522692,0.0-7.0-3.0-0.19,25,Study 25,Session 25,NA,3257,img/testing_events/Bc/Test_Bc_Event_11.jpg,n,response,u,NA,FALSE,Bc
NA,NA,NA,NA,NA,image-keyboard-response,170,526664,0.0-7.0-3.0-0.20,25,Study 25,Session 25,NA,3971,img/testing_events/Bc/Test_Bc_Event_3.jpg,u,response,u,NA,TRUE,Bc
NA,NA,NA,NA,NA,image-keyboard-response,171,527949,0.0-7.0-3.0-0.21,25,Study 25,Session 25,NA,1284,img/testing_events/Bc/Test_Bc_Event_2.jpg,e,response,e,NA,TRUE,Bc
NA,NA,NA,NA,NA,image-keyboard-response,172,530569,0.0-7.0-3.0-0.22,25,Study 25,Session 25,NA,2619,img/testing_events/Bc/Test_Bc_Event_1.jpg,u,response,n,NA,FALSE,Bc
NA,NA,NA,NA,NA,image-keyboard-response,173,532454,0.0-7.0-3.0-0.23,25,Study 25,Session 25,NA,1884,img/testing_events/Bc/Test_Bc_Event_22.jpg,u,response,e,NA,FALSE,Bc
NA,NA,NA,NA,NA,image-keyboard-response,174,534549,0.0-7.0-4.0-0.0,25,Study 25,Session 25,NA,2094,img/testing_events/Ac/Test_Ac_Event_24.jpg,c,response,e,NA,FALSE,Ac
NA,NA,NA,NA,NA,image-keyboard-response,175,536114,0.0-7.0-4.0-0.1,25,Study 25,Session 25,NA,1564,img/testing_events/Ac/Test_Ac_Event_23.jpg,u,response,n,NA,FALSE,Ac
NA,NA,NA,NA,NA,image-keyboard-response,176,537529,0.0-7.0-4.0-0.2,25,Study 25,Session 25,NA,1415,img/testing_events/Ac/Test_Ac_Event_6.jpg,n,response,c,NA,FALSE,Ac
NA,NA,NA,NA,NA,image-keyboard-response,177,538460,0.0-7.0-4.0-0.3,25,Study 25,Session 25,NA,930,img/testing_events/Ac/Test_Ac_Event_14.jpg,e,response,c,NA,FALSE,Ac
NA,NA,NA,NA,NA,image-keyboard-response,178,541233,0.0-7.0-4.0-0.4,25,Study 25,Session 25,NA,2772,img/testing_events/Ac/Test_Ac_Event_5.jpg,c,response,u,NA,FALSE,Ac
NA,NA,NA,NA,NA,image-keyboard-response,179,543589,0.0-7.0-4.0-0.5,25,Study 25,Session 25,NA,2355,img/testing_events/Ac/Test_Ac_Event_10.jpg,e,response,c,NA,FALSE,Ac
NA,NA,NA,NA,NA,image-keyboard-response,180,545752,0.0-7.0-4.0-0.6,25,Study 25,Session 25,NA,2162,img/testing_events/Ac/Test_Ac_Event_12.jpg,e,response,e,NA,TRUE,Ac
NA,NA,NA,NA,NA,image-keyboard-response,181,551490,0.0-7.0-4.0-0.7,25,Study 25,Session 25,NA,5736,img/testing_events/Ac/Test_Ac_Event_8.jpg,u,response,e,NA,FALSE,Ac
NA,NA,NA,NA,NA,image-keyboard-response,182,553341,0.0-7.0-4.0-0.8,25,Study 25,Session 25,NA,1851,img/testing_events/Ac/Test_Ac_Event_15.jpg,n,response,n,NA,TRUE,Ac
NA,NA,NA,NA,NA,image-keyboard-response,183,556445,0.0-7.0-4.0-0.9,25,Study 25,Session 25,NA,3103,img/testing_events/Ac/Test_Ac_Event_21.jpg,c,response,u,NA,FALSE,Ac
NA,NA,NA,NA,NA,image-keyboard-response,184,558293,0.0-7.0-4.0-0.10,25,Study 25,Session 25,NA,1847,img/testing_events/Ac/Test_Ac_Event_16.jpg,u,response,e,NA,FALSE,Ac
NA,NA,NA,NA,NA,image-keyboard-response,185,560152,0.0-7.0-4.0-0.11,25,Study 25,Session 25,NA,1858,img/testing_events/Ac/Test_Ac_Event_3.jpg,n,response,n,NA,TRUE,Ac
NA,NA,NA,NA,NA,image-keyboard-response,186,563069,0.0-7.0-4.0-0.12,25,Study 25,Session 25,NA,2916,img/testing_events/Ac/Test_Ac_Event_20.jpg,c,response,e,NA,FALSE,Ac
NA,NA,NA,NA,NA,image-keyboard-response,187,564751,0.0-7.0-4.0-0.13,25,Study 25,Session 25,NA,1681,img/testing_events/Ac/Test_Ac_Event_4.jpg,e,response,e,NA,TRUE,Ac
NA,NA,NA,NA,NA,image-keyboard-response,188,566946,0.0-7.0-4.0-0.14,25,Study 25,Session 25,NA,2194,img/testing_events/Ac/Test_Ac_Event_19.jpg,u,response,n,NA,FALSE,Ac
NA,NA,NA,NA,NA,image-keyboard-response,189,570464,0.0-7.0-4.0-0.15,25,Study 25,Session 25,NA,3517,img/testing_events/Ac/Test_Ac_Event_17.jpg,n,response,u,NA,FALSE,Ac
NA,NA,NA,NA,NA,image-keyboard-response,190,573404,0.0-7.0-4.0-0.16,25,Study 25,Session 25,NA,2939,img/testing_events/Ac/Test_Ac_Event_2.jpg,c,response,c,NA,TRUE,Ac
NA,NA,NA,NA,NA,image-keyboard-response,191,576694,0.0-7.0-4.0-0.17,25,Study 25,Session 25,NA,3289,img/testing_events/Ac/Test_Ac_Event_22.jpg,u,response,c,NA,FALSE,Ac
NA,NA,NA,NA,NA,image-keyboard-response,192,578546,0.0-7.0-4.0-0.18,25,Study 25,Session 25,NA,1851,img/testing_events/Ac/Test_Ac_Event_9.jpg,e,response,u,NA,FALSE,Ac
NA,NA,NA,NA,NA,image-keyboard-response,193,581920,0.0-7.0-4.0-0.19,25,Study 25,Session 25,NA,3373,img/testing_events/Ac/Test_Ac_Event_7.jpg,e,response,n,NA,FALSE,Ac
NA,NA,NA,NA,NA,image-keyboard-response,194,584621,0.0-7.0-4.0-0.20,25,Study 25,Session 25,NA,2701,img/testing_events/Ac/Test_Ac_Event_18.jpg,u,response,c,NA,FALSE,Ac
NA,NA,NA,NA,NA,image-keyboard-response,195,587691,0.0-7.0-4.0-0.21,25,Study 25,Session 25,NA,3069,img/testing_events/Ac/Test_Ac_Event_13.jpg,e,response,u,NA,FALSE,Ac
NA,NA,NA,NA,NA,image-keyboard-response,196,589469,0.0-7.0-4.0-0.22,25,Study 25,Session 25,NA,1777,img/testing_events/Ac/Test_Ac_Event_11.jpg,n,response,n,NA,TRUE,Ac
NA,NA,NA,NA,NA,image-keyboard-response,197,592364,0.0-7.0-4.0-0.23,25,Study 25,Session 25,NA,2894,img/testing_events/Ac/Test_Ac_Event_1.jpg,u,response,u,NA,TRUE,Ac
NA,NA,NA,NA,NA,image-keyboard-response,198,597289,0.0-7.0-5.0-0.0,25,Study 25,Session 25,NA,4924,img/testing_events/Ba/Test_Ba_Event_10.jpg,u,response,n,NA,FALSE,Ba
NA,NA,NA,NA,NA,image-keyboard-response,199,599148,0.0-7.0-5.0-0.1,25,Study 25,Session 25,NA,1850,img/testing_events/Ba/Test_Ba_Event_23.jpg,u,response,e,NA,FALSE,Ba
NA,NA,NA,NA,NA,image-keyboard-response,200,602146,0.0-7.0-5.0-0.2,25,Study 25,Session 25,NA,2997,img/testing_events/Ba/Test_Ba_Event_1.jpg,c,response,c,NA,TRUE,Ba
NA,NA,NA,NA,NA,image-keyboard-response,201,606468,0.0-7.0-5.0-0.3,25,Study 25,Session 25,NA,4321,img/testing_events/Ba/Test_Ba_Event_2.jpg,u,response,n,NA,FALSE,Ba
NA,NA,NA,NA,NA,image-keyboard-response,202,609267,0.0-7.0-5.0-0.4,25,Study 25,Session 25,NA,2798,img/testing_events/Ba/Test_Ba_Event_16.jpg,u,response,u,NA,TRUE,Ba
NA,NA,NA,NA,NA,image-keyboard-response,203,611224,0.0-7.0-5.0-0.5,25,Study 25,Session 25,NA,1956,img/testing_events/Ba/Test_Ba_Event_20.jpg,u,response,u,NA,TRUE,Ba
NA,NA,NA,NA,NA,image-keyboard-response,204,614159,0.0-7.0-5.0-0.6,25,Study 25,Session 25,NA,2934,img/testing_events/Ba/Test_Ba_Event_6.jpg,n,response,n,NA,TRUE,Ba
NA,NA,NA,NA,NA,image-keyboard-response,205,616029,0.0-7.0-5.0-0.7,25,Study 25,Session 25,NA,1870,img/testing_events/Ba/Test_Ba_Event_9.jpg,e,response,c,NA,FALSE,Ba
NA,NA,NA,NA,NA,image-keyboard-response,206,617316,0.0-7.0-5.0-0.8,25,Study 25,Session 25,NA,1286,img/testing_events/Ba/Test_Ba_Event_24.jpg,c,response,u,NA,FALSE,Ba
NA,NA,NA,NA,NA,image-keyboard-response,207,618788,0.0-7.0-5.0-0.9,25,Study 25,Session 25,NA,1471,img/testing_events/Ba/Test_Ba_Event_22.jpg,u,response,n,NA,FALSE,Ba
NA,NA,NA,NA,NA,image-keyboard-response,208,620252,0.0-7.0-5.0-0.10,25,Study 25,Session 25,NA,1462,img/testing_events/Ba/Test_Ba_Event_11.jpg,e,response,e,NA,TRUE,Ba
NA,NA,NA,NA,NA,image-keyboard-response,209,622257,0.0-7.0-5.0-0.11,25,Study 25,Session 25,NA,2005,img/testing_events/Ba/Test_Ba_Event_21.jpg,n,response,c,NA,FALSE,Ba
NA,NA,NA,NA,NA,image-keyboard-response,210,623856,0.0-7.0-5.0-0.12,25,Study 25,Session 25,NA,1598,img/testing_events/Ba/Test_Ba_Event_14.jpg,n,response,n,NA,TRUE,Ba
NA,NA,NA,NA,NA,image-keyboard-response,211,625179,0.0-7.0-5.0-0.13,25,Study 25,Session 25,NA,1322,img/testing_events/Ba/Test_Ba_Event_5.jpg,u,response,c,NA,FALSE,Ba
NA,NA,NA,NA,NA,image-keyboard-response,212,627201,0.0-7.0-5.0-0.14,25,Study 25,Session 25,NA,2021,img/testing_events/Ba/Test_Ba_Event_13.jpg,u,response,c,NA,FALSE,Ba
NA,NA,NA,NA,NA,image-keyboard-response,213,628904,0.0-7.0-5.0-0.15,25,Study 25,Session 25,NA,1702,img/testing_events/Ba/Test_Ba_Event_7.jpg,u,response,e,NA,FALSE,Ba
NA,NA,NA,NA,NA,image-keyboard-response,214,630139,0.0-7.0-5.0-0.16,25,Study 25,Session 25,NA,1234,img/testing_events/Ba/Test_Ba_Event_15.jpg,e,response,e,NA,TRUE,Ba
NA,NA,NA,NA,NA,image-keyboard-response,215,631968,0.0-7.0-5.0-0.17,25,Study 25,Session 25,NA,1828,img/testing_events/Ba/Test_Ba_Event_18.jpg,c,response,n,NA,FALSE,Ba
NA,NA,NA,NA,NA,image-keyboard-response,216,634410,0.0-7.0-5.0-0.18,25,Study 25,Session 25,NA,2441,img/testing_events/Ba/Test_Ba_Event_4.jpg,u,response,u,NA,TRUE,Ba
NA,NA,NA,NA,NA,image-keyboard-response,217,636820,0.0-7.0-5.0-0.19,25,Study 25,Session 25,NA,2409,img/testing_events/Ba/Test_Ba_Event_17.jpg,u,response,c,NA,FALSE,Ba
NA,NA,NA,NA,NA,image-keyboard-response,218,640832,0.0-7.0-5.0-0.20,25,Study 25,Session 25,NA,4011,img/testing_events/Ba/Test_Ba_Event_8.jpg,c,response,u,NA,FALSE,Ba
NA,NA,NA,NA,NA,image-keyboard-response,219,642512,0.0-7.0-5.0-0.21,25,Study 25,Session 25,NA,1679,img/testing_events/Ba/Test_Ba_Event_3.jpg,e,response,e,NA,TRUE,Ba
NA,NA,NA,NA,NA,image-keyboard-response,220,644542,0.0-7.0-5.0-0.22,25,Study 25,Session 25,NA,2029,img/testing_events/Ba/Test_Ba_Event_12.jpg,u,response,u,NA,TRUE,Ba
NA,NA,NA,NA,NA,image-keyboard-response,221,646164,0.0-7.0-5.0-0.23,25,Study 25,Session 25,NA,1621,img/testing_events/Ba/Test_Ba_Event_19.jpg,n,response,e,NA,FALSE,Ba
NA,NA,NA,NA,NA,survey-text,222,653781,0.0-8.0,25,Study 25,Session 25,NA,7608,NA,"{""Q0"":""No"",""Q1"":""No"",""Q2"":""No""}",NA,NA,NA,NA,NA
NA,NA,NA,NA,NA,survey-html-form,223,675171,0.0-9.0,25,Study 25,Session 25,NA,21387,NA,"{""Gender"":""Female"",""Age"":""26"",""ColorBlind"":""No"",""Education"":""Bachelors degree"",""Income"":""$75,000-$99,999"",""Race"":""Asian/Pacific Islander"",""Fluent"":""Yes"",""AgeEnglish"":""0"",""Country"":""Philippines""}",NA,NA,NA,NA,NA
TRUE,NA,NA,NA,NA,fullscreen,224,675174,0.0-10.0,25,Study 25,Session 25,NA,NA,NA,NA,NA,NA,NA,NA,NA
