success,timeout,failed_images,failed_audio,failed_video,trial_type,trial_index,time_elapsed,internal_node_id,subject_id,study_id,session_id,view_history,rt,stimulus,response,task,correct_response,attention_duration,correct,retrieval_group
TRUE,FALSE,[],[],[],preload,0,1493,0.0-0.0,26,Study 26,Session 26,NA,NA,NA,NA,NA,NA,NA,NA,NA
TRUE,NA,NA,NA,NA,fullscreen,1,34809,0.0-1.0,26,Study 26,Session 26,NA,NA,NA,NA,NA,NA,NA,NA,NA
NA,NA,NA,NA,NA,instructions,2,60443,0.0-2.0,26,Study 26,Session 26,"[{""page_index"":0,""viewing_time"":25633}]",25634,NA,NA,NA,NA,NA,NA,NA
NA,NA,NA,NA,NA,html-keyboard-response,3,69167,0.0-3.0,26,Study 26,Session 26,NA,8724,"Welcome to the experiment. <br /><br />This experiment will take about 20 minutes. Please complete all in one sitting. <br /><br />For this study, <strong>please use</strong> a laptop or desktop computer (not a mobile phone or tablet). Also, please use either <u>Chrome or Firefox</u>. <br /><br />Once you begin, <strong>DO NOT</strong> refresh the browser, as the experiment will reset and you will lose your progress. <br /><br />Press the <strong class=""upperline"">B</strong> key on your keyboard to begin.",b,NA,NA,NA,NA,NA
NA,NA,NA,NA,NA,instructions,4,235966,0.0-4.0,26,Study 26,Session 26,"[{""page_index"":0,""viewing_time"":8692},{""page_index"":1,""viewing_time"":155400},{""page_index"":2,""viewing_time"":1697}]",165789,NA,NA,NA,NA,NA,NA,NA
NA,NA,NA,NA,NA,html-keyboard-response,5,238987,0.0-5.0-0.0,26,Study 26,Session 26,NA,null,"<div style=""font-size:60px;"">+</div>",null,fixation,NA,NA,NA,NA
NA,NA,NA,NA,NA,image-keyboard-response,6,245000,0.0-5.0-1.0,26,Study 26,Session 26,NA,null,img/encoding_events/Event_6.jpg,null,NA,NA,NA,NA,NA
NA,NA,NA,NA,NA,html-keyboard-response,7,245002,0.0-5.0-2.0,26,Study 26,Session 26,NA,null,Please press the <strong><u>f</u></strong> key to continue,null,response,f,0,FALSE,NA
NA,NA,NA,NA,NA,html-keyboard-response,8,245509,0.0-5.0-0.1,26,Study 26,Session 26,NA,null,"<div style=""font-size:60px;"">+</div>",null,fixation,NA,NA,NA,NA
NA,NA,NA,NA,NA,image-keyboard-response,9,251524,0.0-5.0-1.1,26,Study 26,Session 26,NA,null,img/encoding_events/Event_5.jpg,null,NA,NA,NA,NA,NA
NA,NA,NA,NA,NA,html-keyboard-response,10,251529,0.0-5.0-2.1,26,Study 26,Session 26,NA,null,Please press the <strong><u>d</u></strong> key to continue,null,response,d,0,FALSE,NA
NA,NA,NA,NA,NA,html-keyboard-response,11,252037,0.0-5.0-0.2,26,Study 26,Session 26,NA,null,"<div style=""font-size:60px;"">+</div>",null,fixation,NA,NA,NA,NA
NA,NA,NA,NA,NA,image-keyboard-response,12,258044,0.0-5.0-1.2,26,Study 26,Session 26,NA,null,img/encoding_events/Event_9.jpg,null,NA,NA,NA,NA,NA
NA,NA,NA,NA,NA,html-keyboard-response,13,258049,0.0-5.0-2.2,26,Study 26,Session 26,NA,null,Please press the <strong><u>s</u></strong> key to continue,null,response,s,0,FALSE,NA
NA,NA,NA,NA,NA,html-keyboard-response,14,258564,0.0-5.0-0.3,26,Study 26,Session 26,NA,null,"<div style=""font-size:60px;"">+</div>",null,fixation,NA,NA,NA,NA
NA,NA,NA,NA,NA,image-keyboard-response,15,264579,0.0-5.0-1.3,26,Study 26,Session 26,NA,null,img/encoding_events/Event_1.jpg,null,NA,NA,NA,NA,NA
NA,NA,NA,NA,NA,html-keyboard-response,16,266672,0.0-5.0-2.3,26,Study 26,Session 26,NA,2093,Please press the <strong><u>d</u></strong> key to continue,d,response,d,6000,TRUE,NA
NA,NA,NA,NA,NA,html-keyboard-response,17,267183,0.0-5.0-0.4,26,Study 26,Session 26,NA,null,"<div style=""font-size:60px;"">+</div>",null,fixation,NA,NA,NA,NA
NA,NA,NA,NA,NA,image-keyboard-response,18,273195,0.0-5.0-1.4,26,Study 26,Session 26,NA,null,img/encoding_events/Event_21.jpg,null,NA,NA,NA,NA,NA
NA,NA,NA,NA,NA,html-keyboard-response,19,273196,0.0-5.0-2.4,26,Study 26,Session 26,NA,null,Please press the <strong><u>k</u></strong> key to continue,null,response,k,0,FALSE,NA
NA,NA,NA,NA,NA,html-keyboard-response,20,273707,0.0-5.0-0.5,26,Study 26,Session 26,NA,null,"<div style=""font-size:60px;"">+</div>",null,fixation,NA,NA,NA,NA
NA,NA,NA,NA,NA,image-keyboard-response,21,279712,0.0-5.0-1.5,26,Study 26,Session 26,NA,null,img/encoding_events/Event_22.jpg,null,NA,NA,NA,NA,NA
NA,NA,NA,NA,NA,html-keyboard-response,22,279717,0.0-5.0-2.5,26,Study 26,Session 26,NA,null,Please press the <strong><u>a</u></strong> key to continue,null,response,a,0,FALSE,NA
NA,NA,NA,NA,NA,html-keyboard-response,23,280219,0.0-5.0-0.6,26,Study 26,Session 26,NA,null,"<div style=""font-size:60px;"">+</div>",null,fixation,NA,NA,NA,NA
NA,NA,NA,NA,NA,image-keyboard-response,24,286228,0.0-5.0-1.6,26,Study 26,Session 26,NA,null,img/encoding_events/Event_14.jpg,null,NA,NA,NA,NA,NA
NA,NA,NA,NA,NA,html-keyboard-response,25,286233,0.0-5.0-2.6,26,Study 26,Session 26,NA,null,Please press the <strong><u>d</u></strong> key to continue,null,response,d,0,FALSE,NA
NA,NA,NA,NA,NA,html-keyboard-response,26,286736,0.0-5.0-0.7,26,Study 26,Session 26,NA,null,"<div style=""font-size:60px;"">+</div>",null,fixation,NA,NA,NA,NA
NA,NA,NA,NA,NA,image-keyboard-response,27,292741,0.0-5.0-1.7,26,Study 26,Session 26,NA,null,img/encoding_events/Event_11.jpg,null,NA,NA,NA,NA,NA
NA,NA,NA,NA,NA,html-keyboard-response,28,294360,0.0-5.0-2.7,26,Study 26,Session 26,NA,1618,Please press the <strong><u>a</u></strong> key to continue,a,response,a,6000,TRUE,NA
NA,NA,NA,NA,NA,html-keyboard-response,29,294871,0.0-5.0-0.8,26,Study 26,Session 26,NA,null,"<div style=""font-size:60px;"">+</div>",null,fixation,NA,NA,NA,NA
NA,NA,NA,NA,NA,image-keyboard-response,30,300888,0.0-5.0-1.8,26,Study 26,Session 26,NA,null,img/encoding_events/Event_4.jpg,null,NA,NA,NA,NA,NA
NA,NA,NA,NA,NA,html-keyboard-response,31,300889,0.0-5.0-2.8,26,Study 26,Session 26,NA,null,Please press the <strong><u>s</u></strong> key to continue,null,response,s,0,FALSE,NA
NA,NA,NA,NA,NA,html-keyboard-response,32,301399,0.0-5.0-0.9,26,Study 26,Session 26,NA,null,"<div style=""font-size:60px;"">+</div>",null,fixation,NA,NA,NA,NA
NA,NA,NA,NA,NA,image-keyboard-response,33,307412,0.0-5.0-1.9,26,Study 26,Session 26,NA,null,img/encoding_events/Event_16.jpg,null,NA,NA,NA,NA,NA
NA,NA,NA,NA,NA,html-keyboard-response,34,307417,0.0-5.0-2.9,26,Study 26,Session 26,NA,null,Please press the <strong><u>j</u></strong> key to continue,null,response,j,0,FALSE,NA
NA,NA,NA,NA,NA,html-keyboard-response,35,307923,0.0-5.0-0.10,26,Study 26,Session 26,NA,null,"<div style=""font-size:60px;"">+</div>",null,fixation,NA,NA,NA,NA
NA,NA,NA,NA,NA,image-keyboard-response,36,313929,0.0-5.0-1.10,26,Study 26,Session 26,NA,null,img/encoding_events/Event_8.jpg,null,NA,NA,NA,NA,NA
NA,NA,NA,NA,NA,html-keyboard-response,37,313934,0.0-5.0-2.10,26,Study 26,Session 26,NA,null,Please press the <strong><u>a</u></strong> key to continue,null,response,a,0,FALSE,NA
NA,NA,NA,NA,NA,html-keyboard-response,38,314439,0.0-5.0-0.11,26,Study 26,Session 26,NA,null,"<div style=""font-size:60px;"">+</div>",null,fixation,NA,NA,NA,NA
NA,NA,NA,NA,NA,image-keyboard-response,39,320453,0.0-5.0-1.11,26,Study 26,Session 26,NA,null,img/encoding_events/Event_23.jpg,null,NA,NA,NA,NA,NA
NA,NA,NA,NA,NA,html-keyboard-response,40,321984,0.0-5.0-2.11,26,Study 26,Session 26,NA,1531,Please press the <strong><u>s</u></strong> key to continue,s,response,s,6000,TRUE,NA
NA,NA,NA,NA,NA,html-keyboard-response,41,322498,0.0-5.0-0.12,26,Study 26,Session 26,NA,null,"<div style=""font-size:60px;"">+</div>",null,fixation,NA,NA,NA,NA
NA,NA,NA,NA,NA,image-keyboard-response,42,328514,0.0-5.0-1.12,26,Study 26,Session 26,NA,null,img/encoding_events/Event_19.jpg,null,NA,NA,NA,NA,NA
NA,NA,NA,NA,NA,html-keyboard-response,43,328515,0.0-5.0-2.12,26,Study 26,Session 26,NA,null,Please press the <strong><u>a</u></strong> key to continue,null,response,a,0,FALSE,NA
NA,NA,NA,NA,NA,html-keyboard-response,44,329027,0.0-5.0-0.13,26,Study 26,Session 26,NA,null,"<div style=""font-size:60px;"">+</div>",null,fixation,NA,NA,NA,NA
NA,NA,NA,NA,NA,image-keyboard-response,45,335040,0.0-5.0-1.13,26,Study 26,Session 26,NA,null,img/encoding_events/Event_17.jpg,null,NA,NA,NA,NA,NA
NA,NA,NA,NA,NA,html-keyboard-response,46,335045,0.0-5.0-2.13,26,Study 26,Session 26,NA,null,Please press the <strong><u>j</u></strong> key to continue,null,response,j,0,FALSE,NA
NA,NA,NA,NA,NA,html-keyboard-response,47,335560,0.0-5.0-0.14,26,Study 26,Session 26,NA,null,"<div style=""font-size:60px;"">+</div>",null,fixation,NA,NA,NA,NA
NA,NA,NA,NA,NA,image-keyboard-response,48,341573,0.0-5.0-1.14,26,Study 26,Session 26,NA,null,img/encoding_events/Event_2.jpg,null,NA,NA,NA,NA,NA
NA,NA,NA,NA,NA,html-keyboard-response,49,341579,0.0-5.0-2.14,26,Study 26,Session 26,NA,null,Please press the <strong><u>a</u></strong> key to continue,null,response,a,0,FALSE,NA
NA,NA,NA,NA,NA,html-keyboard-response,50,342084,0.0-5.0-0.15,26,Study 26,Session 26,NA,null,"<div style=""font-size:60px;"">+</div>",null,fixation,NA,NA,NA,NA
NA,NA,NA,NA,NA,image-keyboard-response,51,348092,0.0-5.0-1.15,26,Study 26,Session 26,NA,null,img/encoding_events/Event_15.jpg,null,NA,NA,NA,NA,NA
NA,NA,NA,NA,NA,html-keyboard-response,52,349536,0.0-5.0-2.15,26,Study 26,Session 26,NA,1444,Please press the <strong><u>j</u></strong> key to continue,j,response,j,6000,TRUE,NA
NA,NA,NA,NA,NA,html-keyboard-response,53,350041,0.0-5.0-0.16,26,Study 26,Session 26,NA,null,"<div style=""font-size:60px;"">+</div>",null,fixation,NA,NA,NA,NA
NA,NA,NA,NA,NA,image-keyboard-response,54,356050,0.0-5.0-1.16,26,Study 26,Session 26,NA,null,img/encoding_events/Event_13.jpg,null,NA,NA,NA,NA,NA
NA,NA,NA,NA,NA,html-keyboard-response,55,356051,0.0-5.0-2.16,26,Study 26,Session 26,NA,null,Please press the <strong><u>s</u></strong> key to continue,null,response,s,0,FALSE,NA
NA,NA,NA,NA,NA,html-keyboard-response,56,356565,0.0-5.0-0.17,26,Study 26,Session 26,NA,null,"<div style=""font-size:60px;"">+</div>",null,fixation,NA,NA,NA,NA
NA,NA,NA,NA,NA,image-keyboard-response,57,362571,0.0-5.0-1.17,26,Study 26,Session 26,NA,null,img/encoding_events/Event_12.jpg,null,NA,NA,NA,NA,NA
NA,NA,NA,NA,NA,html-keyboard-response,58,362576,0.0-5.0-2.17,26,Study 26,Session 26,NA,null,Please press the <strong><u>f</u></strong> key to continue,null,response,f,0,FALSE,NA
NA,NA,NA,NA,NA,html-keyboard-response,59,363084,0.0-5.0-0.18,26,Study 26,Session 26,NA,null,"<div style=""font-size:60px;"">+</div>",null,fixation,NA,NA,NA,NA
NA,NA,NA,NA,NA,image-keyboard-response,60,369096,0.0-5.0-1.18,26,Study 26,Session 26,NA,null,img/encoding_events/Event_3.jpg,null,NA,NA,NA,NA,NA
NA,NA,NA,NA,NA,html-keyboard-response,61,369102,0.0-5.0-2.18,26,Study 26,Session 26,NA,null,Please press the <strong><u>d</u></strong> key to continue,null,response,d,0,FALSE,NA
NA,NA,NA,NA,NA,html-keyboard-response,62,369604,0.0-5.0-0.19,26,Study 26,Session 26,NA,null,"<div style=""font-size:60px;"">+</div>",null,fixation,NA,NA,NA,NA
NA,NA,NA,NA,NA,image-keyboard-response,63,375612,0.0-5.0-1.19,26,Study 26,Session 26,NA,null,img/encoding_events/Event_20.jpg,null,NA,NA,NA,NA,NA
NA,NA,NA,NA,NA,html-keyboard-response,64,377040,0.0-5.0-2.19,26,Study 26,Session 26,NA,1428,Please press the <strong><u>a</u></strong> key to continue,a,response,a,6000,TRUE,NA
NA,NA,NA,NA,NA,html-keyboard-response,65,377543,0.0-5.0-0.20,26,Study 26,Session 26,NA,null,"<div style=""font-size:60px;"">+</div>",null,fixation,NA,NA,NA,NA
NA,NA,NA,NA,NA,image-keyboard-response,66,383558,0.0-5.0-1.20,26,Study 26,Session 26,NA,null,img/encoding_events/Event_18.jpg,null,NA,NA,NA,NA,NA
NA,NA,NA,NA,NA,html-keyboard-response,67,383559,0.0-5.0-2.20,26,Study 26,Session 26,NA,null,Please press the <strong><u>s</u></strong> key to continue,null,response,s,0,FALSE,NA
NA,NA,NA,NA,NA,html-keyboard-response,68,384060,0.0-5.0-0.21,26,Study 26,Session 26,NA,null,"<div style=""font-size:60px;"">+</div>",null,fixation,NA,NA,NA,NA
NA,NA,NA,NA,NA,image-keyboard-response,69,390070,0.0-5.0-1.21,26,Study 26,Session 26,NA,null,img/encoding_events/Event_24.jpg,null,NA,NA,NA,NA,NA
NA,NA,NA,NA,NA,html-keyboard-response,70,390075,0.0-5.0-2.21,26,Study 26,Session 26,NA,null,Please press the <strong><u>d</u></strong> key to continue,null,response,d,0,FALSE,NA
NA,NA,NA,NA,NA,html-keyboard-response,71,390578,0.0-5.0-0.22,26,Study 26,Session 26,NA,null,"<div style=""font-size:60px;"">+</div>",null,fixation,NA,NA,NA,NA
NA,NA,NA,NA,NA,image-keyboard-response,72,396592,0.0-5.0-1.22,26,Study 26,Session 26,NA,null,img/encoding_events/Event_10.jpg,null,NA,NA,NA,NA,NA
NA,NA,NA,NA,NA,html-keyboard-response,73,396596,0.0-5.0-2.22,26,Study 26,Session 26,NA,null,Please press the <strong><u>a</u></strong> key to continue,null,response,a,0,FALSE,NA
NA,NA,NA,NA,NA,html-keyboard-response,74,397108,0.0-5.0-0.23,26,Study 26,Session 26,NA,null,"<div style=""font-size:60px;"">+</div>",null,fixation,NA,NA,NA,NA
NA,NA,NA,NA,NA,image-keyboard-response,75,403112,0.0-5.0-1.23,26,Study 26,Session 26,NA,null,img/encoding_events/Event_7.jpg,null,NA,NA,NA,NA,NA
NA,NA,NA,NA,NA,html-keyboard-response,76,408648,0.0-5.0-2.23,26,Study 26,Session 26,NA,5536,Please press the <strong><u>f</u></strong> key to continue,f,response,f,6000,TRUE,NA
NA,NA,NA,NA,NA,instructions,77,494930,0.0-6.0,26,Study 26,Session 26,"[{""page_index"":0,""viewing_time"":2346},{""page_index"":1,""viewing_time"":3042},{""page_index"":2,""viewing_time"":5488},{""page_index"":3,""viewing_time"":68290},{""page_index"":4,""viewing_time"":4410},{""page_index"":5,""viewing_time"":1712},{""page_index"":6,""viewing_time"":993}]",86281,NA,NA,NA,NA,NA,NA,NA
NA,NA,NA,NA,NA,image-keyboard-response,78,500256,0.0-7.0-0.0-0.0,26,Study 26,Session 26,NA,2818,img/testing_events/Bc/Test_Bc_Event_21.jpg,n,response,n,NA,TRUE,Bc
NA,NA,NA,NA,NA,image-keyboard-response,79,501392,0.0-7.0-0.0-0.1,26,Study 26,Session 26,NA,1134,img/testing_events/Bc/Test_Bc_Event_19.jpg,u,response,u,NA,TRUE,Bc
NA,NA,NA,NA,NA,image-keyboard-response,80,503744,0.0-7.0-0.0-0.2,26,Study 26,Session 26,NA,2351,img/testing_events/Bc/Test_Bc_Event_24.jpg,c,response,c,NA,TRUE,Bc
NA,NA,NA,NA,NA,image-keyboard-response,81,506344,0.0-7.0-0.0-0.3,26,Study 26,Session 26,NA,2599,img/testing_events/Bc/Test_Bc_Event_3.jpg,u,response,u,NA,TRUE,Bc
NA,NA,NA,NA,NA,image-keyboard-response,82,510104,0.0-7.0-0.0-0.4,26,Study 26,Session 26,NA,3759,img/testing_events/Bc/Test_Bc_Event_23.jpg,u,response,u,NA,TRUE,Bc
NA,NA,NA,NA,NA,image-keyboard-response,83,513856,0.0-7.0-0.0-0.5,26,Study 26,Session 26,NA,3751,img/testing_events/Bc/Test_Bc_Event_6.jpg,e,response,e,NA,TRUE,Bc
NA,NA,NA,NA,NA,image-keyboard-response,84,517056,0.0-7.0-0.0-0.6,26,Study 26,Session 26,NA,3199,img/testing_events/Bc/Test_Bc_Event_1.jpg,n,response,n,NA,TRUE,Bc
NA,NA,NA,NA,NA,image-keyboard-response,85,518424,0.0-7.0-0.0-0.7,26,Study 26,Session 26,NA,1367,img/testing_events/Bc/Test_Bc_Event_20.jpg,c,response,c,NA,TRUE,Bc
NA,NA,NA,NA,NA,image-keyboard-response,86,520536,0.0-7.0-0.0-0.8,26,Study 26,Session 26,NA,2112,img/testing_events/Bc/Test_Bc_Event_5.jpg,n,response,n,NA,TRUE,Bc
NA,NA,NA,NA,NA,image-keyboard-response,87,521992,0.0-7.0-0.0-0.9,26,Study 26,Session 26,NA,1455,img/testing_events/Bc/Test_Bc_Event_15.jpg,u,response,u,NA,TRUE,Bc
NA,NA,NA,NA,NA,image-keyboard-response,88,525496,0.0-7.0-0.0-0.10,26,Study 26,Session 26,NA,3504,img/testing_events/Bc/Test_Bc_Event_10.jpg,e,response,e,NA,TRUE,Bc
NA,NA,NA,NA,NA,image-keyboard-response,89,528032,0.0-7.0-0.0-0.11,26,Study 26,Session 26,NA,2535,img/testing_events/Bc/Test_Bc_Event_12.jpg,c,response,c,NA,TRUE,Bc
NA,NA,NA,NA,NA,image-keyboard-response,90,529336,0.0-7.0-0.0-0.12,26,Study 26,Session 26,NA,1304,img/testing_events/Bc/Test_Bc_Event_22.jpg,e,response,e,NA,TRUE,Bc
NA,NA,NA,NA,NA,image-keyboard-response,91,530344,0.0-7.0-0.0-0.13,26,Study 26,Session 26,NA,1007,img/testing_events/Bc/Test_Bc_Event_2.jpg,e,response,e,NA,TRUE,Bc
NA,NA,NA,NA,NA,image-keyboard-response,92,532320,0.0-7.0-0.0-0.14,26,Study 26,Session 26,NA,1975,img/testing_events/Bc/Test_Bc_Event_16.jpg,c,response,c,NA,TRUE,Bc
NA,NA,NA,NA,NA,image-keyboard-response,93,535336,0.0-7.0-0.0-0.15,26,Study 26,Session 26,NA,3016,img/testing_events/Bc/Test_Bc_Event_7.jpg,u,response,u,NA,TRUE,Bc
NA,NA,NA,NA,NA,image-keyboard-response,94,536696,0.0-7.0-0.0-0.16,26,Study 26,Session 26,NA,1359,img/testing_events/Bc/Test_Bc_Event_17.jpg,n,response,n,NA,TRUE,Bc
NA,NA,NA,NA,NA,image-keyboard-response,95,541568,0.0-7.0-0.0-0.17,26,Study 26,Session 26,NA,4870,img/testing_events/Bc/Test_Bc_Event_11.jpg,u,response,u,NA,TRUE,Bc
NA,NA,NA,NA,NA,image-keyboard-response,96,544632,0.0-7.0-0.0-0.18,26,Study 26,Session 26,NA,3063,img/testing_events/Bc/Test_Bc_Event_8.jpg,c,response,c,NA,TRUE,Bc
NA,NA,NA,NA,NA,image-keyboard-response,97,546032,0.0-7.0-0.0-0.19,26,Study 26,Session 26,NA,1399,img/testing_events/Bc/Test_Bc_Event_14.jpg,e,response,e,NA,TRUE,Bc
NA,NA,NA,NA,NA,image-keyboard-response,98,547688,0.0-7.0-0.0-0.20,26,Study 26,Session 26,NA,1655,img/testing_events/Bc/Test_Bc_Event_13.jpg,n,response,n,NA,TRUE,Bc
NA,NA,NA,NA,NA,image-keyboard-response,99,552280,0.0-7.0-0.0-0.21,26,Study 26,Session 26,NA,4591,img/testing_events/Bc/Test_Bc_Event_4.jpg,c,response,c,NA,TRUE,Bc
NA,NA,NA,NA,NA,image-keyboard-response,100,554440,0.0-7.0-0.0-0.22,26,Study 26,Session 26,NA,2158,img/testing_events/Bc/Test_Bc_Event_9.jpg,n,response,n,NA,TRUE,Bc
NA,NA,NA,NA,NA,image-keyboard-response,101,556624,0.0-7.0-0.0-0.23,26,Study 26,Session 26,NA,2183,img/testing_events/Bc/Test_Bc_Event_18.jpg,e,response,e,NA,TRUE,Bc
NA,NA,NA,NA,NA,image-keyboard-response,102,565840,0.0-7.0-1.0-0.0,26,Study 26,Session 26,NA,9215,img/testing_events/Ab/Test_Ab_Event_6.jpg,u,response,u,NA,TRUE,Ab
NA,NA,NA,NA,NA,image-keyboard-response,103,567344,0.0-7.0-1.0-0.1,26,Study 26,Session 26,NA,1503,img/testing_events/Ab/Test_Ab_Event_21.jpg,u,response,e,NA,FALSE,Ab
NA,NA,NA,NA,NA,image-keyboard-response,104,568408,0.0-7.0-1.0-0.2,26,Study 26,Session 26,NA,1064,img/testing_events/Ab/Test_Ab_Event_17.jpg,e,response,e,NA,TRUE,Ab
NA,NA,NA,NA,NA,image-keyboard-response,105,569488,0.0-7.0-1.0-0.3,26,Study 26,Session 26,NA,1080,img/testing_events/Ab/Test_Ab_Event_19.jpg,c,response,c,NA,TRUE,Ab
NA,NA,NA,NA,NA,image-keyboard-response,106,571656,0.0-7.0-1.0-0.4,26,Study 26,Session 26,NA,2168,img/testing_events/Ab/Test_Ab_Event_10.jpg,u,response,u,NA,TRUE,Ab
NA,NA,NA,NA,NA,image-keyboard-response,107,572976,0.0-7.0-1.0-0.5,26,Study 26,Session 26,NA,1320,img/testing_events/Ab/Test_Ab_Event_13.jpg,e,response,e,NA,TRUE,Ab
NA,NA,NA,NA,NA,image-keyboard-response,108,574888,0.0-7.0-1.0-0.6,26,Study 26,Session 26,NA,1911,img/testing_events/Ab/Test_Ab_Event_24.jpg,n,response,n,NA,TRUE,Ab
NA,NA,NA,NA,NA,image-keyboard-response,109,576456,0.0-7.0-1.0-0.7,26,Study 26,Session 26,NA,1568,img/testing_events/Ab/Test_Ab_Event_3.jpg,c,response,c,NA,TRUE,Ab
NA,NA,NA,NA,NA,image-keyboard-response,110,584200,0.0-7.0-1.0-0.8,26,Study 26,Session 26,NA,7743,img/testing_events/Ab/Test_Ab_Event_7.jpg,c,response,c,NA,TRUE,Ab
NA,NA,NA,NA,NA,image-keyboard-response,111,587080,0.0-7.0-1.0-0.9,26,Study 26,Session 26,NA,2880,img/testing_events/Ab/Test_Ab_Event_5.jpg,e,response,e,NA,TRUE,Ab
NA,NA,NA,NA,NA,image-keyboard-response,112,588616,0.0-7.0-1.0-0.10,26,Study 26,Session 26,NA,1536,img/testing_events/Ab/Test_Ab_Event_23.jpg,c,response,c,NA,TRUE,Ab
NA,NA,NA,NA,NA,image-keyboard-response,113,597920,0.0-7.0-1.0-0.11,26,Study 26,Session 26,NA,9304,img/testing_events/Ab/Test_Ab_Event_1.jpg,e,response,e,NA,TRUE,Ab
NA,NA,NA,NA,NA,image-keyboard-response,114,599696,0.0-7.0-1.0-0.12,26,Study 26,Session 26,NA,1775,img/testing_events/Ab/Test_Ab_Event_15.jpg,c,response,c,NA,TRUE,Ab
NA,NA,NA,NA,NA,image-keyboard-response,115,608841,0.0-7.0-1.0-0.13,26,Study 26,Session 26,NA,9144,img/testing_events/Ab/Test_Ab_Event_9.jpg,e,response,e,NA,TRUE,Ab
NA,NA,NA,NA,NA,image-keyboard-response,116,612768,0.0-7.0-1.0-0.14,26,Study 26,Session 26,NA,3928,img/testing_events/Ab/Test_Ab_Event_2.jpg,u,response,u,NA,TRUE,Ab
NA,NA,NA,NA,NA,image-keyboard-response,117,620457,0.0-7.0-1.0-0.15,26,Study 26,Session 26,NA,7688,img/testing_events/Ab/Test_Ab_Event_4.jpg,n,response,n,NA,TRUE,Ab
NA,NA,NA,NA,NA,image-keyboard-response,118,623288,0.0-7.0-1.0-0.16,26,Study 26,Session 26,NA,2831,img/testing_events/Ab/Test_Ab_Event_20.jpg,n,response,n,NA,TRUE,Ab
NA,NA,NA,NA,NA,image-keyboard-response,119,624792,0.0-7.0-1.0-0.17,26,Study 26,Session 26,NA,1503,img/testing_events/Ab/Test_Ab_Event_11.jpg,c,response,c,NA,TRUE,Ab
NA,NA,NA,NA,NA,image-keyboard-response,120,625948,0.0-7.0-1.0-0.18,26,Study 26,Session 26,NA,1156,img/testing_events/Ab/Test_Ab_Event_16.jpg,n,response,n,NA,TRUE,Ab
NA,NA,NA,NA,NA,image-keyboard-response,121,633961,0.0-7.0-1.0-0.19,26,Study 26,Session 26,NA,8011,img/testing_events/Ab/Test_Ab_Event_12.jpg,n,response,n,NA,TRUE,Ab
NA,NA,NA,NA,NA,image-keyboard-response,122,639096,0.0-7.0-1.0-0.20,26,Study 26,Session 26,NA,5135,img/testing_events/Ab/Test_Ab_Event_18.jpg,u,response,u,NA,TRUE,Ab
NA,NA,NA,NA,NA,image-keyboard-response,123,641761,0.0-7.0-1.0-0.21,26,Study 26,Session 26,NA,2662,img/testing_events/Ab/Test_Ab_Event_22.jpg,u,response,u,NA,TRUE,Ab
NA,NA,NA,NA,NA,image-keyboard-response,124,644009,0.0-7.0-1.0-0.22,26,Study 26,Session 26,NA,2248,img/testing_events/Ab/Test_Ab_Event_8.jpg,n,response,n,NA,TRUE,Ab
NA,NA,NA,NA,NA,image-keyboard-response,125,646144,0.0-7.0-1.0-0.23,26,Study 26,Session 26,NA,2136,img/testing_events/Ab/Test_Ab_Event_14.jpg,u,response,u,NA,TRUE,Ab
NA,NA,NA,NA,NA,image-keyboard-response,126,652344,0.0-7.0-2.0-0.0,26,Study 26,Session 26,NA,6199,img/testing_events/Ba/Test_Ba_Event_11.jpg,e,response,e,NA,TRUE,Ba
NA,NA,NA,NA,NA,image-keyboard-response,127,653632,0.0-7.0-2.0-0.1,26,Study 26,Session 26,NA,1287,img/testing_events/Ba/Test_Ba_Event_19.jpg,e,response,e,NA,TRUE,Ba
NA,NA,NA,NA,NA,image-keyboard-response,128,654657,0.0-7.0-2.0-0.2,26,Study 26,Session 26,NA,1023,img/testing_events/Ba/Test_Ba_Event_15.jpg,e,response,e,NA,TRUE,Ba
NA,NA,NA,NA,NA,image-keyboard-response,129,655808,0.0-7.0-2.0-0.3,26,Study 26,Session 26,NA,1151,img/testing_events/Ba/Test_Ba_Event_23.jpg,e,response,e,NA,TRUE,Ba
NA,NA,NA,NA,NA,image-keyboard-response,130,658080,0.0-7.0-2.0-0.4,26,Study 26,Session 26,NA,2270,img/testing_events/Ba/Test_Ba_Event_5.jpg,c,response,c,NA,TRUE,Ba
NA,NA,NA,NA,NA,image-keyboard-response,131,663232,0.0-7.0-2.0-0.5,26,Study 26,Session 26,NA,5151,img/testing_events/Ba/Test_Ba_Event_16.jpg,u,response,u,NA,TRUE,Ba
NA,NA,NA,NA,NA,image-keyboard-response,132,664777,0.0-7.0-2.0-0.6,26,Study 26,Session 26,NA,1544,img/testing_events/Ba/Test_Ba_Event_21.jpg,c,response,c,NA,TRUE,Ba
NA,NA,NA,NA,NA,image-keyboard-response,133,669144,0.0-7.0-2.0-0.7,26,Study 26,Session 26,NA,4368,img/testing_events/Ba/Test_Ba_Event_24.jpg,u,response,u,NA,TRUE,Ba
NA,NA,NA,NA,NA,image-keyboard-response,134,677232,0.0-7.0-2.0-0.8,26,Study 26,Session 26,NA,8088,img/testing_events/Ba/Test_Ba_Event_9.jpg,e,response,c,NA,FALSE,Ba
NA,NA,NA,NA,NA,image-keyboard-response,135,681272,0.0-7.0-2.0-0.9,26,Study 26,Session 26,NA,4039,img/testing_events/Ba/Test_Ba_Event_12.jpg,n,response,u,NA,FALSE,Ba
NA,NA,NA,NA,NA,image-keyboard-response,136,683120,0.0-7.0-2.0-0.10,26,Study 26,Session 26,NA,1846,img/testing_events/Ba/Test_Ba_Event_18.jpg,n,response,n,NA,TRUE,Ba
NA,NA,NA,NA,NA,image-keyboard-response,137,684440,0.0-7.0-2.0-0.11,26,Study 26,Session 26,NA,1320,img/testing_events/Ba/Test_Ba_Event_2.jpg,n,response,n,NA,TRUE,Ba
NA,NA,NA,NA,NA,image-keyboard-response,138,686120,0.0-7.0-2.0-0.12,26,Study 26,Session 26,NA,1678,img/testing_events/Ba/Test_Ba_Event_7.jpg,e,response,e,NA,TRUE,Ba
NA,NA,NA,NA,NA,image-keyboard-response,139,688480,0.0-7.0-2.0-0.13,26,Study 26,Session 26,NA,2360,img/testing_events/Ba/Test_Ba_Event_22.jpg,n,response,n,NA,TRUE,Ba
NA,NA,NA,NA,NA,image-keyboard-response,140,692408,0.0-7.0-2.0-0.14,26,Study 26,Session 26,NA,3927,img/testing_events/Ba/Test_Ba_Event_10.jpg,n,response,n,NA,TRUE,Ba
NA,NA,NA,NA,NA,image-keyboard-response,141,694264,0.0-7.0-2.0-0.15,26,Study 26,Session 26,NA,1856,img/testing_events/Ba/Test_Ba_Event_17.jpg,c,response,c,NA,TRUE,Ba
NA,NA,NA,NA,NA,image-keyboard-response,142,697592,0.0-7.0-2.0-0.16,26,Study 26,Session 26,NA,3328,img/testing_events/Ba/Test_Ba_Event_20.jpg,u,response,u,NA,TRUE,Ba
NA,NA,NA,NA,NA,image-keyboard-response,143,703616,0.0-7.0-2.0-0.17,26,Study 26,Session 26,NA,6023,img/testing_events/Ba/Test_Ba_Event_1.jpg,c,response,c,NA,TRUE,Ba
NA,NA,NA,NA,NA,image-keyboard-response,144,706112,0.0-7.0-2.0-0.18,26,Study 26,Session 26,NA,2496,img/testing_events/Ba/Test_Ba_Event_14.jpg,n,response,n,NA,TRUE,Ba
NA,NA,NA,NA,NA,image-keyboard-response,145,708072,0.0-7.0-2.0-0.19,26,Study 26,Session 26,NA,1959,img/testing_events/Ba/Test_Ba_Event_8.jpg,u,response,u,NA,TRUE,Ba
NA,NA,NA,NA,NA,image-keyboard-response,146,713072,0.0-7.0-2.0-0.20,26,Study 26,Session 26,NA,4999,img/testing_events/Ba/Test_Ba_Event_4.jpg,u,response,u,NA,TRUE,Ba
NA,NA,NA,NA,NA,image-keyboard-response,147,714745,0.0-7.0-2.0-0.21,26,Study 26,Session 26,NA,1671,img/testing_events/Ba/Test_Ba_Event_6.jpg,n,response,n,NA,TRUE,Ba
NA,NA,NA,NA,NA,image-keyboard-response,148,716792,0.0-7.0-2.0-0.22,26,Study 26,Session 26,NA,2046,img/testing_events/Ba/Test_Ba_Event_3.jpg,e,response,e,NA,TRUE,Ba
NA,NA,NA,NA,NA,image-keyboard-response,149,718160,0.0-7.0-2.0-0.23,26,Study 26,Session 26,NA,1367,img/testing_events/Ba/Test_Ba_Event_13.jpg,c,response,c,NA,TRUE,Ba
NA,NA,NA,NA,NA,image-keyboard-response,150,723488,0.0-7.0-3.0-0.0,26,Study 26,Session 26,NA,5327,img/testing_events/Ca/Test_Ca_Event_19.jpg,c,response,c,NA,TRUE,Ca
NA,NA,NA,NA,NA,image-keyboard-response,151,724544,0.0-7.0-3.0-0.1,26,Study 26,Session 26,NA,1055,img/testing_events/Ca/Test_Ca_Event_15.jpg,c,response,c,NA,TRUE,Ca
NA,NA,NA,NA,NA,image-keyboard-response,152,726400,0.0-7.0-3.0-0.2,26,Study 26,Session 26,NA,1856,img/testing_events/Ca/Test_Ca_Event_10.jpg,u,response,u,NA,TRUE,Ca
NA,NA,NA,NA,NA,image-keyboard-response,153,727584,0.0-7.0-3.0-0.3,26,Study 26,Session 26,NA,1182,img/testing_events/Ca/Test_Ca_Event_21.jpg,e,response,e,NA,TRUE,Ca
NA,NA,NA,NA,NA,image-keyboard-response,154,728432,0.0-7.0-3.0-0.4,26,Study 26,Session 26,NA,847,img/testing_events/Ca/Test_Ca_Event_17.jpg,e,response,e,NA,TRUE,Ca
NA,NA,NA,NA,NA,image-keyboard-response,155,731392,0.0-7.0-3.0-0.5,26,Study 26,Session 26,NA,2959,img/testing_events/Ca/Test_Ca_Event_18.jpg,u,response,u,NA,TRUE,Ca
NA,NA,NA,NA,NA,image-keyboard-response,156,733808,0.0-7.0-3.0-0.6,26,Study 26,Session 26,NA,2416,img/testing_events/Ca/Test_Ca_Event_13.jpg,e,response,e,NA,TRUE,Ca
NA,NA,NA,NA,NA,image-keyboard-response,157,735112,0.0-7.0-3.0-0.7,26,Study 26,Session 26,NA,1304,img/testing_events/Ca/Test_Ca_Event_11.jpg,c,response,c,NA,TRUE,Ca
NA,NA,NA,NA,NA,image-keyboard-response,158,736704,0.0-7.0-3.0-0.8,26,Study 26,Session 26,NA,1592,img/testing_events/Ca/Test_Ca_Event_6.jpg,u,response,u,NA,TRUE,Ca
NA,NA,NA,NA,NA,image-keyboard-response,159,762169,0.0-7.0-3.0-0.9,26,Study 26,Session 26,NA,25464,img/testing_events/Ca/Test_Ca_Event_12.jpg,n,response,n,NA,TRUE,Ca
NA,NA,NA,NA,NA,image-keyboard-response,160,764072,0.0-7.0-3.0-0.10,26,Study 26,Session 26,NA,1903,img/testing_events/Ca/Test_Ca_Event_16.jpg,n,response,n,NA,TRUE,Ca
NA,NA,NA,NA,NA,image-keyboard-response,161,765704,0.0-7.0-3.0-0.11,26,Study 26,Session 26,NA,1632,img/testing_events/Ca/Test_Ca_Event_8.jpg,n,response,n,NA,TRUE,Ca
NA,NA,NA,NA,NA,image-keyboard-response,162,766840,0.0-7.0-3.0-0.12,26,Study 26,Session 26,NA,1135,img/testing_events/Ca/Test_Ca_Event_7.jpg,c,response,c,NA,TRUE,Ca
NA,NA,NA,NA,NA,image-keyboard-response,163,768632,0.0-7.0-3.0-0.13,26,Study 26,Session 26,NA,1791,img/testing_events/Ca/Test_Ca_Event_23.jpg,c,response,c,NA,TRUE,Ca
NA,NA,NA,NA,NA,image-keyboard-response,164,769616,0.0-7.0-3.0-0.14,26,Study 26,Session 26,NA,983,img/testing_events/Ca/Test_Ca_Event_22.jpg,u,response,u,NA,TRUE,Ca
NA,NA,NA,NA,NA,image-keyboard-response,165,775553,0.0-7.0-3.0-0.15,26,Study 26,Session 26,NA,5936,img/testing_events/Ca/Test_Ca_Event_4.jpg,n,response,n,NA,TRUE,Ca
NA,NA,NA,NA,NA,image-keyboard-response,166,779472,0.0-7.0-3.0-0.16,26,Study 26,Session 26,NA,3920,img/testing_events/Ca/Test_Ca_Event_1.jpg,e,response,e,NA,TRUE,Ca
NA,NA,NA,NA,NA,image-keyboard-response,167,781624,0.0-7.0-3.0-0.17,26,Study 26,Session 26,NA,2151,img/testing_events/Ca/Test_Ca_Event_20.jpg,n,response,n,NA,TRUE,Ca
NA,NA,NA,NA,NA,image-keyboard-response,168,785144,0.0-7.0-3.0-0.18,26,Study 26,Session 26,NA,3519,img/testing_events/Ca/Test_Ca_Event_14.jpg,u,response,u,NA,TRUE,Ca
NA,NA,NA,NA,NA,image-keyboard-response,169,787952,0.0-7.0-3.0-0.19,26,Study 26,Session 26,NA,2808,img/testing_events/Ca/Test_Ca_Event_2.jpg,u,response,u,NA,TRUE,Ca
NA,NA,NA,NA,NA,image-keyboard-response,170,789968,0.0-7.0-3.0-0.20,26,Study 26,Session 26,NA,2015,img/testing_events/Ca/Test_Ca_Event_24.jpg,n,response,n,NA,TRUE,Ca
NA,NA,NA,NA,NA,image-keyboard-response,171,791888,0.0-7.0-3.0-0.21,26,Study 26,Session 26,NA,1920,img/testing_events/Ca/Test_Ca_Event_5.jpg,e,response,e,NA,TRUE,Ca
NA,NA,NA,NA,NA,image-keyboard-response,172,797368,0.0-7.0-3.0-0.22,26,Study 26,Session 26,NA,5480,img/testing_events/Ca/Test_Ca_Event_9.jpg,e,response,e,NA,TRUE,Ca
NA,NA,NA,NA,NA,image-keyboard-response,173,799625,0.0-7.0-3.0-0.23,26,Study 26,Session 26,NA,2255,img/testing_events/Ca/Test_Ca_Event_3.jpg,c,response,c,NA,TRUE,Ca
NA,NA,NA,NA,NA,image-keyboard-response,174,806320,0.0-7.0-4.0-0.0,26,Study 26,Session 26,NA,6695,img/testing_events/Ac/Test_Ac_Event_20.jpg,e,response,e,NA,TRUE,Ac
NA,NA,NA,NA,NA,image-keyboard-response,175,809584,0.0-7.0-4.0-0.1,26,Study 26,Session 26,NA,3263,img/testing_events/Ac/Test_Ac_Event_6.jpg,c,response,c,NA,TRUE,Ac
NA,NA,NA,NA,NA,image-keyboard-response,176,810968,0.0-7.0-4.0-0.2,26,Study 26,Session 26,NA,1385,img/testing_events/Ac/Test_Ac_Event_8.jpg,e,response,e,NA,TRUE,Ac
NA,NA,NA,NA,NA,image-keyboard-response,177,812096,0.0-7.0-4.0-0.3,26,Study 26,Session 26,NA,1127,img/testing_events/Ac/Test_Ac_Event_11.jpg,n,response,n,NA,TRUE,Ac
NA,NA,NA,NA,NA,image-keyboard-response,178,815360,0.0-7.0-4.0-0.4,26,Study 26,Session 26,NA,3263,img/testing_events/Ac/Test_Ac_Event_4.jpg,e,response,e,NA,TRUE,Ac
NA,NA,NA,NA,NA,image-keyboard-response,179,817328,0.0-7.0-4.0-0.5,26,Study 26,Session 26,NA,1967,img/testing_events/Ac/Test_Ac_Event_5.jpg,u,response,u,NA,TRUE,Ac
NA,NA,NA,NA,NA,image-keyboard-response,180,818744,0.0-7.0-4.0-0.6,26,Study 26,Session 26,NA,1416,img/testing_events/Ac/Test_Ac_Event_7.jpg,n,response,n,NA,TRUE,Ac
NA,NA,NA,NA,NA,image-keyboard-response,181,819840,0.0-7.0-4.0-0.7,26,Study 26,Session 26,NA,1095,img/testing_events/Ac/Test_Ac_Event_3.jpg,n,response,n,NA,TRUE,Ac
NA,NA,NA,NA,NA,image-keyboard-response,182,822376,0.0-7.0-4.0-0.8,26,Study 26,Session 26,NA,2536,img/testing_events/Ac/Test_Ac_Event_1.jpg,u,response,u,NA,TRUE,Ac
NA,NA,NA,NA,NA,image-keyboard-response,183,823560,0.0-7.0-4.0-0.9,26,Study 26,Session 26,NA,1183,img/testing_events/Ac/Test_Ac_Event_9.jpg,u,response,u,NA,TRUE,Ac
NA,NA,NA,NA,NA,image-keyboard-response,184,824832,0.0-7.0-4.0-0.10,26,Study 26,Session 26,NA,1272,img/testing_events/Ac/Test_Ac_Event_15.jpg,n,response,n,NA,TRUE,Ac
NA,NA,NA,NA,NA,image-keyboard-response,185,826112,0.0-7.0-4.0-0.11,26,Study 26,Session 26,NA,1280,img/testing_events/Ac/Test_Ac_Event_13.jpg,u,response,u,NA,TRUE,Ac
NA,NA,NA,NA,NA,image-keyboard-response,186,827544,0.0-7.0-4.0-0.12,26,Study 26,Session 26,NA,1431,img/testing_events/Ac/Test_Ac_Event_19.jpg,n,response,n,NA,TRUE,Ac
NA,NA,NA,NA,NA,image-keyboard-response,187,828832,0.0-7.0-4.0-0.13,26,Study 26,Session 26,NA,1288,img/testing_events/Ac/Test_Ac_Event_17.jpg,u,response,u,NA,TRUE,Ac
NA,NA,NA,NA,NA,image-keyboard-response,188,830048,0.0-7.0-4.0-0.14,26,Study 26,Session 26,NA,1216,img/testing_events/Ac/Test_Ac_Event_22.jpg,c,response,c,NA,TRUE,Ac
NA,NA,NA,NA,NA,image-keyboard-response,189,832664,0.0-7.0-4.0-0.15,26,Study 26,Session 26,NA,2615,img/testing_events/Ac/Test_Ac_Event_2.jpg,c,response,c,NA,TRUE,Ac
NA,NA,NA,NA,NA,image-keyboard-response,190,834273,0.0-7.0-4.0-0.16,26,Study 26,Session 26,NA,1607,img/testing_events/Ac/Test_Ac_Event_21.jpg,u,response,u,NA,TRUE,Ac
NA,NA,NA,NA,NA,image-keyboard-response,191,835768,0.0-7.0-4.0-0.17,26,Study 26,Session 26,NA,1494,img/testing_events/Ac/Test_Ac_Event_14.jpg,c,response,c,NA,TRUE,Ac
NA,NA,NA,NA,NA,image-keyboard-response,192,837600,0.0-7.0-4.0-0.18,26,Study 26,Session 26,NA,1832,img/testing_events/Ac/Test_Ac_Event_10.jpg,c,response,c,NA,TRUE,Ac
NA,NA,NA,NA,NA,image-keyboard-response,193,839056,0.0-7.0-4.0-0.19,26,Study 26,Session 26,NA,1455,img/testing_events/Ac/Test_Ac_Event_12.jpg,e,response,e,NA,TRUE,Ac
NA,NA,NA,NA,NA,image-keyboard-response,194,840096,0.0-7.0-4.0-0.20,26,Study 26,Session 26,NA,1040,img/testing_events/Ac/Test_Ac_Event_16.jpg,e,response,e,NA,TRUE,Ac
NA,NA,NA,NA,NA,image-keyboard-response,195,841600,0.0-7.0-4.0-0.21,26,Study 26,Session 26,NA,1505,img/testing_events/Ac/Test_Ac_Event_18.jpg,c,response,c,NA,TRUE,Ac
NA,NA,NA,NA,NA,image-keyboard-response,196,842648,0.0-7.0-4.0-0.22,26,Study 26,Session 26,NA,1047,img/testing_events/Ac/Test_Ac_Event_23.jpg,n,response,n,NA,TRUE,Ac
NA,NA,NA,NA,NA,image-keyboard-response,197,844368,0.0-7.0-4.0-0.23,26,Study 26,Session 26,NA,1719,img/testing_events/Ac/Test_Ac_Event_24.jpg,e,response,e,NA,TRUE,Ac
NA,NA,NA,NA,NA,image-keyboard-response,198,849968,0.0-7.0-5.0-0.0,26,Study 26,Session 26,NA,5600,img/testing_events/Cb/Test_Cb_Event_9.jpg,u,response,u,NA,TRUE,Cb
NA,NA,NA,NA,NA,image-keyboard-response,199,852353,0.0-7.0-5.0-0.1,26,Study 26,Session 26,NA,2383,img/testing_events/Cb/Test_Cb_Event_11.jpg,n,response,n,NA,TRUE,Cb
NA,NA,NA,NA,NA,image-keyboard-response,200,855481,0.0-7.0-5.0-0.2,26,Study 26,Session 26,NA,3127,img/testing_events/Cb/Test_Cb_Event_6.jpg,c,response,c,NA,TRUE,Cb
NA,NA,NA,NA,NA,image-keyboard-response,201,856913,0.0-7.0-5.0-0.3,26,Study 26,Session 26,NA,1431,img/testing_events/Cb/Test_Cb_Event_19.jpg,n,response,n,NA,TRUE,Cb
NA,NA,NA,NA,NA,image-keyboard-response,202,858105,0.0-7.0-5.0-0.4,26,Study 26,Session 26,NA,1191,img/testing_events/Cb/Test_Cb_Event_20.jpg,e,response,e,NA,TRUE,Cb
NA,NA,NA,NA,NA,image-keyboard-response,203,858953,0.0-7.0-5.0-0.5,26,Study 26,Session 26,NA,848,img/testing_events/Cb/Test_Cb_Event_16.jpg,e,response,e,NA,TRUE,Cb
NA,NA,NA,NA,NA,image-keyboard-response,204,861169,0.0-7.0-5.0-0.6,26,Study 26,Session 26,NA,2215,img/testing_events/Cb/Test_Cb_Event_23.jpg,n,response,n,NA,TRUE,Cb
NA,NA,NA,NA,NA,image-keyboard-response,205,863329,0.0-7.0-5.0-0.7,26,Study 26,Session 26,NA,2160,img/testing_events/Cb/Test_Cb_Event_10.jpg,c,response,c,NA,TRUE,Cb
NA,NA,NA,NA,NA,image-keyboard-response,206,864633,0.0-7.0-5.0-0.8,26,Study 26,Session 26,NA,1304,img/testing_events/Cb/Test_Cb_Event_24.jpg,e,response,e,NA,TRUE,Cb
NA,NA,NA,NA,NA,image-keyboard-response,207,865841,0.0-7.0-5.0-0.9,26,Study 26,Session 26,NA,1207,img/testing_events/Cb/Test_Cb_Event_5.jpg,u,response,u,NA,TRUE,Cb
NA,NA,NA,NA,NA,image-keyboard-response,208,869265,0.0-7.0-5.0-0.10,26,Study 26,Session 26,NA,3422,img/testing_events/Cb/Test_Cb_Event_18.jpg,c,response,c,NA,TRUE,Cb
NA,NA,NA,NA,NA,image-keyboard-response,209,871265,0.0-7.0-5.0-0.11,26,Study 26,Session 26,NA,2000,img/testing_events/Cb/Test_Cb_Event_21.jpg,u,response,u,NA,TRUE,Cb
NA,NA,NA,NA,NA,image-keyboard-response,210,872321,0.0-7.0-5.0-0.12,26,Study 26,Session 26,NA,1055,img/testing_events/Cb/Test_Cb_Event_17.jpg,u,response,u,NA,TRUE,Cb
NA,NA,NA,NA,NA,image-keyboard-response,211,873721,0.0-7.0-5.0-0.13,26,Study 26,Session 26,NA,1399,img/testing_events/Cb/Test_Cb_Event_22.jpg,c,response,c,NA,TRUE,Cb
NA,NA,NA,NA,NA,image-keyboard-response,212,875329,0.0-7.0-5.0-0.14,26,Study 26,Session 26,NA,1608,img/testing_events/Cb/Test_Cb_Event_14.jpg,c,response,c,NA,TRUE,Cb
NA,NA,NA,NA,NA,image-keyboard-response,213,876177,0.0-7.0-5.0-0.15,26,Study 26,Session 26,NA,847,img/testing_events/Cb/Test_Cb_Event_2.jpg,c,response,c,NA,TRUE,Cb
NA,NA,NA,NA,NA,image-keyboard-response,214,878825,0.0-7.0-5.0-0.16,26,Study 26,Session 26,NA,2647,img/testing_events/Cb/Test_Cb_Event_4.jpg,e,response,e,NA,TRUE,Cb
NA,NA,NA,NA,NA,image-keyboard-response,215,882217,0.0-7.0-5.0-0.17,26,Study 26,Session 26,NA,3391,img/testing_events/Cb/Test_Cb_Event_3.jpg,n,response,n,NA,TRUE,Cb
NA,NA,NA,NA,NA,image-keyboard-response,216,883849,0.0-7.0-5.0-0.18,26,Study 26,Session 26,NA,1631,img/testing_events/Cb/Test_Cb_Event_7.jpg,n,response,n,NA,TRUE,Cb
NA,NA,NA,NA,NA,image-keyboard-response,217,886361,0.0-7.0-5.0-0.19,26,Study 26,Session 26,NA,2511,img/testing_events/Cb/Test_Cb_Event_12.jpg,e,response,e,NA,TRUE,Cb
NA,NA,NA,NA,NA,image-keyboard-response,218,889561,0.0-7.0-5.0-0.20,26,Study 26,Session 26,NA,3199,img/testing_events/Cb/Test_Cb_Event_1.jpg,u,response,u,NA,TRUE,Cb
NA,NA,NA,NA,NA,image-keyboard-response,219,893321,0.0-7.0-5.0-0.21,26,Study 26,Session 26,NA,3760,img/testing_events/Cb/Test_Cb_Event_13.jpg,u,response,u,NA,TRUE,Cb
NA,NA,NA,NA,NA,image-keyboard-response,220,894897,0.0-7.0-5.0-0.22,26,Study 26,Session 26,NA,1575,img/testing_events/Cb/Test_Cb_Event_8.jpg,e,response,e,NA,TRUE,Cb
NA,NA,NA,NA,NA,image-keyboard-response,221,896457,0.0-7.0-5.0-0.23,26,Study 26,Session 26,NA,1559,img/testing_events/Cb/Test_Cb_Event_15.jpg,n,response,n,NA,TRUE,Cb
NA,NA,NA,NA,NA,survey-text,222,912069,0.0-8.0,26,Study 26,Session 26,NA,15606,NA,"{""Q0"":""no"",""Q1"":""n/a"",""Q2"":""no""}",NA,NA,NA,NA,NA
NA,NA,NA,NA,NA,survey-html-form,223,928055,0.0-9.0,26,Study 26,Session 26,NA,15986,NA,"{""Gender"":""Male"",""Age"":""30"",""ColorBlind"":""No"",""Education"":""Bachelors degree"",""Income"":""$25,000-$49,999"",""Race"":""White"",""Fluent"":""Yes"",""AgeEnglish"":""0"",""Country"":""USA""}",NA,NA,NA,NA,NA
TRUE,NA,NA,NA,NA,fullscreen,224,928056,0.0-10.0,26,Study 26,Session 26,NA,NA,NA,NA,NA,NA,NA,NA,NA
