success,timeout,failed_images,failed_audio,failed_video,trial_type,trial_index,time_elapsed,internal_node_id,subject_id,study_id,session_id,view_history,rt,stimulus,response,task,correct_response,attention_duration,correct,retrieval_group
TRUE,FALSE,[],[],[],preload,0,830,0.0-0.0,30,Study 30,Session 30,NA,NA,NA,NA,NA,NA,NA,NA,NA
TRUE,NA,NA,NA,NA,fullscreen,1,3519,0.0-1.0,30,Study 30,Session 30,NA,NA,NA,NA,NA,NA,NA,NA,NA
NA,NA,NA,NA,NA,instructions,2,4896,0.0-2.0,30,Study 30,Session 30,"[{""page_index"":0,""viewing_time"":1376}]",1376,NA,NA,NA,NA,NA,NA,NA
NA,NA,NA,NA,NA,html-keyboard-response,3,13275,0.0-3.0,30,Study 30,Session 30,NA,8378,"Welcome to the experiment. <br /><br />This experiment will take about 20 minutes. Please complete all in one sitting. <br /><br />For this study, <strong>please use</strong> a laptop or desktop computer (not a mobile phone or tablet). Also, please use either <u>Chrome or Firefox</u>. <br /><br />Once you begin, <strong>DO NOT</strong> refresh the browser, as the experiment will reset and you will lose your progress. <br /><br />Press the <strong class=""upperline"">B</strong> key on your keyboard to begin.",b,NA,NA,NA,NA,NA
NA,NA,NA,NA,NA,instructions,4,30298,0.0-4.0,30,Study 30,Session 30,"[{""page_index"":0,""viewing_time"":3737},{""page_index"":1,""viewing_time"":10082},{""page_index"":2,""viewing_time"":2200}]",16020,NA,NA,NA,NA,NA,NA,NA
NA,NA,NA,NA,NA,html-keyboard-response,5,33311,0.0-5.0-0.0,30,Study 30,Session 30,NA,null,"<div style=""font-size:60px;"">+</div>",null,fixation,NA,NA,NA,NA
NA,NA,NA,NA,NA,image-keyboard-response,6,39318,0.0-5.0-1.0,30,Study 30,Session 30,NA,null,img/encoding_events/Event_8.jpg,null,NA,NA,NA,NA,NA
NA,NA,NA,NA,NA,html-keyboard-response,7,39319,0.0-5.0-2.0,30,Study 30,Session 30,NA,null,Please press the <strong><u>s</u></strong> key to continue,null,response,s,0,FALSE,NA
NA,NA,NA,NA,NA,html-keyboard-response,8,39824,0.0-5.0-0.1,30,Study 30,Session 30,NA,null,"<div style=""font-size:60px;"">+</div>",null,fixation,NA,NA,NA,NA
NA,NA,NA,NA,NA,image-keyboard-response,9,45832,0.0-5.0-1.1,30,Study 30,Session 30,NA,null,img/encoding_events/Event_11.jpg,null,NA,NA,NA,NA,NA
NA,NA,NA,NA,NA,html-keyboard-response,10,45837,0.0-5.0-2.1,30,Study 30,Session 30,NA,null,Please press the <strong><u>f</u></strong> key to continue,null,response,f,0,FALSE,NA
NA,NA,NA,NA,NA,html-keyboard-response,11,46344,0.0-5.0-0.2,30,Study 30,Session 30,NA,null,"<div style=""font-size:60px;"">+</div>",null,fixation,NA,NA,NA,NA
NA,NA,NA,NA,NA,image-keyboard-response,12,52351,0.0-5.0-1.2,30,Study 30,Session 30,NA,null,img/encoding_events/Event_2.jpg,null,NA,NA,NA,NA,NA
NA,NA,NA,NA,NA,html-keyboard-response,13,52357,0.0-5.0-2.2,30,Study 30,Session 30,NA,null,Please press the <strong><u>a</u></strong> key to continue,null,response,a,0,FALSE,NA
NA,NA,NA,NA,NA,html-keyboard-response,14,52863,0.0-5.0-0.3,30,Study 30,Session 30,NA,null,"<div style=""font-size:60px;"">+</div>",null,fixation,NA,NA,NA,NA
NA,NA,NA,NA,NA,image-keyboard-response,15,58870,0.0-5.0-1.3,30,Study 30,Session 30,NA,null,img/encoding_events/Event_10.jpg,null,NA,NA,NA,NA,NA
NA,NA,NA,NA,NA,html-keyboard-response,16,61593,0.0-5.0-2.3,30,Study 30,Session 30,NA,2722,Please press the <strong><u>d</u></strong> key to continue,d,response,d,6000,TRUE,NA
NA,NA,NA,NA,NA,html-keyboard-response,17,62096,0.0-5.0-0.4,30,Study 30,Session 30,NA,null,"<div style=""font-size:60px;"">+</div>",null,fixation,NA,NA,NA,NA
NA,NA,NA,NA,NA,image-keyboard-response,18,68104,0.0-5.0-1.4,30,Study 30,Session 30,NA,null,img/encoding_events/Event_19.jpg,null,NA,NA,NA,NA,NA
NA,NA,NA,NA,NA,html-keyboard-response,19,68107,0.0-5.0-2.4,30,Study 30,Session 30,NA,null,Please press the <strong><u>a</u></strong> key to continue,null,response,a,0,FALSE,NA
NA,NA,NA,NA,NA,html-keyboard-response,20,68612,0.0-5.0-0.5,30,Study 30,Session 30,NA,null,"<div style=""font-size:60px;"">+</div>",null,fixation,NA,NA,NA,NA
NA,NA,NA,NA,NA,image-keyboard-response,21,74620,0.0-5.0-1.5,30,Study 30,Session 30,NA,null,img/encoding_events/Event_22.jpg,null,NA,NA,NA,NA,NA
NA,NA,NA,NA,NA,html-keyboard-response,22,74625,0.0-5.0-2.5,30,Study 30,Session 30,NA,null,Please press the <strong><u>d</u></strong> key to continue,null,response,d,0,FALSE,NA
NA,NA,NA,NA,NA,html-keyboard-response,23,75128,0.0-5.0-0.6,30,Study 30,Session 30,NA,null,"<div style=""font-size:60px;"">+</div>",null,fixation,NA,NA,NA,NA
NA,NA,NA,NA,NA,image-keyboard-response,24,81136,0.0-5.0-1.6,30,Study 30,Session 30,NA,null,img/encoding_events/Event_15.jpg,null,NA,NA,NA,NA,NA
NA,NA,NA,NA,NA,html-keyboard-response,25,81142,0.0-5.0-2.6,30,Study 30,Session 30,NA,null,Please press the <strong><u>j</u></strong> key to continue,null,response,j,0,FALSE,NA
NA,NA,NA,NA,NA,html-keyboard-response,26,81648,0.0-5.0-0.7,30,Study 30,Session 30,NA,null,"<div style=""font-size:60px;"">+</div>",null,fixation,NA,NA,NA,NA
NA,NA,NA,NA,NA,image-keyboard-response,27,87656,0.0-5.0-1.7,30,Study 30,Session 30,NA,null,img/encoding_events/Event_24.jpg,null,NA,NA,NA,NA,NA
NA,NA,NA,NA,NA,html-keyboard-response,28,89062,0.0-5.0-2.7,30,Study 30,Session 30,NA,1405,Please press the <strong><u>k</u></strong> key to continue,k,response,k,6000,TRUE,NA
NA,NA,NA,NA,NA,html-keyboard-response,29,89567,0.0-5.0-0.8,30,Study 30,Session 30,NA,null,"<div style=""font-size:60px;"">+</div>",null,fixation,NA,NA,NA,NA
NA,NA,NA,NA,NA,image-keyboard-response,30,95575,0.0-5.0-1.8,30,Study 30,Session 30,NA,null,img/encoding_events/Event_4.jpg,null,NA,NA,NA,NA,NA
NA,NA,NA,NA,NA,html-keyboard-response,31,95578,0.0-5.0-2.8,30,Study 30,Session 30,NA,null,Please press the <strong><u>f</u></strong> key to continue,null,response,f,0,FALSE,NA
NA,NA,NA,NA,NA,html-keyboard-response,32,96084,0.0-5.0-0.9,30,Study 30,Session 30,NA,null,"<div style=""font-size:60px;"">+</div>",null,fixation,NA,NA,NA,NA
NA,NA,NA,NA,NA,image-keyboard-response,33,102092,0.0-5.0-1.9,30,Study 30,Session 30,NA,null,img/encoding_events/Event_23.jpg,null,NA,NA,NA,NA,NA
NA,NA,NA,NA,NA,html-keyboard-response,34,102097,0.0-5.0-2.9,30,Study 30,Session 30,NA,null,Please press the <strong><u>k</u></strong> key to continue,null,response,k,0,FALSE,NA
NA,NA,NA,NA,NA,html-keyboard-response,35,102603,0.0-5.0-0.10,30,Study 30,Session 30,NA,null,"<div style=""font-size:60px;"">+</div>",null,fixation,NA,NA,NA,NA
NA,NA,NA,NA,NA,image-keyboard-response,36,108611,0.0-5.0-1.10,30,Study 30,Session 30,NA,null,img/encoding_events/Event_13.jpg,null,NA,NA,NA,NA,NA
NA,NA,NA,NA,NA,html-keyboard-response,37,108617,0.0-5.0-2.10,30,Study 30,Session 30,NA,null,Please press the <strong><u>a</u></strong> key to continue,null,response,a,0,FALSE,NA
NA,NA,NA,NA,NA,html-keyboard-response,38,109121,0.0-5.0-0.11,30,Study 30,Session 30,NA,null,"<div style=""font-size:60px;"">+</div>",null,fixation,NA,NA,NA,NA
NA,NA,NA,NA,NA,image-keyboard-response,39,115128,0.0-5.0-1.11,30,Study 30,Session 30,NA,null,img/encoding_events/Event_1.jpg,null,NA,NA,NA,NA,NA
NA,NA,NA,NA,NA,html-keyboard-response,40,116240,0.0-5.0-2.11,30,Study 30,Session 30,NA,1111,Please press the <strong><u>s</u></strong> key to continue,s,response,s,6000,TRUE,NA
NA,NA,NA,NA,NA,html-keyboard-response,41,116743,0.0-5.0-0.12,30,Study 30,Session 30,NA,null,"<div style=""font-size:60px;"">+</div>",null,fixation,NA,NA,NA,NA
NA,NA,NA,NA,NA,image-keyboard-response,42,122750,0.0-5.0-1.12,30,Study 30,Session 30,NA,null,img/encoding_events/Event_17.jpg,null,NA,NA,NA,NA,NA
NA,NA,NA,NA,NA,html-keyboard-response,43,122752,0.0-5.0-2.12,30,Study 30,Session 30,NA,null,Please press the <strong><u>s</u></strong> key to continue,null,response,s,0,FALSE,NA
NA,NA,NA,NA,NA,html-keyboard-response,44,123258,0.0-5.0-0.13,30,Study 30,Session 30,NA,null,"<div style=""font-size:60px;"">+</div>",null,fixation,NA,NA,NA,NA
NA,NA,NA,NA,NA,image-keyboard-response,45,129265,0.0-5.0-1.13,30,Study 30,Session 30,NA,null,img/encoding_events/Event_6.jpg,null,NA,NA,NA,NA,NA
NA,NA,NA,NA,NA,html-keyboard-response,46,129271,0.0-5.0-2.13,30,Study 30,Session 30,NA,null,Please press the <strong><u>f</u></strong> key to continue,null,response,f,0,FALSE,NA
NA,NA,NA,NA,NA,html-keyboard-response,47,129777,0.0-5.0-0.14,30,Study 30,Session 30,NA,null,"<div style=""font-size:60px;"">+</div>",null,fixation,NA,NA,NA,NA
NA,NA,NA,NA,NA,image-keyboard-response,48,135784,0.0-5.0-1.14,30,Study 30,Session 30,NA,null,img/encoding_events/Event_9.jpg,null,NA,NA,NA,NA,NA
NA,NA,NA,NA,NA,html-keyboard-response,49,135790,0.0-5.0-2.14,30,Study 30,Session 30,NA,null,Please press the <strong><u>a</u></strong> key to continue,null,response,a,0,FALSE,NA
NA,NA,NA,NA,NA,html-keyboard-response,50,136294,0.0-5.0-0.15,30,Study 30,Session 30,NA,null,"<div style=""font-size:60px;"">+</div>",null,fixation,NA,NA,NA,NA
NA,NA,NA,NA,NA,image-keyboard-response,51,142302,0.0-5.0-1.15,30,Study 30,Session 30,NA,null,img/encoding_events/Event_5.jpg,null,NA,NA,NA,NA,NA
NA,NA,NA,NA,NA,html-keyboard-response,52,143516,0.0-5.0-2.15,30,Study 30,Session 30,NA,1213,Please press the <strong><u>d</u></strong> key to continue,d,response,d,6000,TRUE,NA
NA,NA,NA,NA,NA,html-keyboard-response,53,144021,0.0-5.0-0.16,30,Study 30,Session 30,NA,null,"<div style=""font-size:60px;"">+</div>",null,fixation,NA,NA,NA,NA
NA,NA,NA,NA,NA,image-keyboard-response,54,150029,0.0-5.0-1.16,30,Study 30,Session 30,NA,null,img/encoding_events/Event_16.jpg,null,NA,NA,NA,NA,NA
NA,NA,NA,NA,NA,html-keyboard-response,55,150032,0.0-5.0-2.16,30,Study 30,Session 30,NA,null,Please press the <strong><u>j</u></strong> key to continue,null,response,j,0,FALSE,NA
NA,NA,NA,NA,NA,html-keyboard-response,56,150534,0.0-5.0-0.17,30,Study 30,Session 30,NA,null,"<div style=""font-size:60px;"">+</div>",null,fixation,NA,NA,NA,NA
NA,NA,NA,NA,NA,image-keyboard-response,57,156540,0.0-5.0-1.17,30,Study 30,Session 30,NA,null,img/encoding_events/Event_7.jpg,null,NA,NA,NA,NA,NA
NA,NA,NA,NA,NA,html-keyboard-response,58,156545,0.0-5.0-2.17,30,Study 30,Session 30,NA,null,Please press the <strong><u>k</u></strong> key to continue,null,response,k,0,FALSE,NA
NA,NA,NA,NA,NA,html-keyboard-response,59,157047,0.0-5.0-0.18,30,Study 30,Session 30,NA,null,"<div style=""font-size:60px;"">+</div>",null,fixation,NA,NA,NA,NA
NA,NA,NA,NA,NA,image-keyboard-response,60,163052,0.0-5.0-1.18,30,Study 30,Session 30,NA,null,img/encoding_events/Event_3.jpg,null,NA,NA,NA,NA,NA
NA,NA,NA,NA,NA,html-keyboard-response,61,163058,0.0-5.0-2.18,30,Study 30,Session 30,NA,null,Please press the <strong><u>s</u></strong> key to continue,null,response,s,0,FALSE,NA
NA,NA,NA,NA,NA,html-keyboard-response,62,163564,0.0-5.0-0.19,30,Study 30,Session 30,NA,null,"<div style=""font-size:60px;"">+</div>",null,fixation,NA,NA,NA,NA
NA,NA,NA,NA,NA,image-keyboard-response,63,169572,0.0-5.0-1.19,30,Study 30,Session 30,NA,null,img/encoding_events/Event_21.jpg,null,NA,NA,NA,NA,NA
NA,NA,NA,NA,NA,html-keyboard-response,64,170740,0.0-5.0-2.19,30,Study 30,Session 30,NA,1167,Please press the <strong><u>a</u></strong> key to continue,a,response,a,6000,TRUE,NA
NA,NA,NA,NA,NA,html-keyboard-response,65,171245,0.0-5.0-0.20,30,Study 30,Session 30,NA,null,"<div style=""font-size:60px;"">+</div>",null,fixation,NA,NA,NA,NA
NA,NA,NA,NA,NA,image-keyboard-response,66,177249,0.0-5.0-1.20,30,Study 30,Session 30,NA,null,img/encoding_events/Event_14.jpg,null,NA,NA,NA,NA,NA
NA,NA,NA,NA,NA,html-keyboard-response,67,177251,0.0-5.0-2.20,30,Study 30,Session 30,NA,null,Please press the <strong><u>f</u></strong> key to continue,null,response,f,0,FALSE,NA
NA,NA,NA,NA,NA,html-keyboard-response,68,177757,0.0-5.0-0.21,30,Study 30,Session 30,NA,null,"<div style=""font-size:60px;"">+</div>",null,fixation,NA,NA,NA,NA
NA,NA,NA,NA,NA,image-keyboard-response,69,183764,0.0-5.0-1.21,30,Study 30,Session 30,NA,null,img/encoding_events/Event_18.jpg,null,NA,NA,NA,NA,NA
NA,NA,NA,NA,NA,html-keyboard-response,70,183769,0.0-5.0-2.21,30,Study 30,Session 30,NA,null,Please press the <strong><u>j</u></strong> key to continue,null,response,j,0,FALSE,NA
NA,NA,NA,NA,NA,html-keyboard-response,71,184275,0.0-5.0-0.22,30,Study 30,Session 30,NA,null,"<div style=""font-size:60px;"">+</div>",null,fixation,NA,NA,NA,NA
NA,NA,NA,NA,NA,image-keyboard-response,72,190283,0.0-5.0-1.22,30,Study 30,Session 30,NA,null,img/encoding_events/Event_20.jpg,null,NA,NA,NA,NA,NA
NA,NA,NA,NA,NA,html-keyboard-response,73,190289,0.0-5.0-2.22,30,Study 30,Session 30,NA,null,Please press the <strong><u>k</u></strong> key to continue,null,response,k,0,FALSE,NA
NA,NA,NA,NA,NA,html-keyboard-response,74,190790,0.0-5.0-0.23,30,Study 30,Session 30,NA,null,"<div style=""font-size:60px;"">+</div>",null,fixation,NA,NA,NA,NA
NA,NA,NA,NA,NA,image-keyboard-response,75,196795,0.0-5.0-1.23,30,Study 30,Session 30,NA,null,img/encoding_events/Event_12.jpg,null,NA,NA,NA,NA,NA
NA,NA,NA,NA,NA,html-keyboard-response,76,198453,0.0-5.0-2.23,30,Study 30,Session 30,NA,1656,Please press the <strong><u>f</u></strong> key to continue,f,response,f,6000,TRUE,NA
NA,NA,NA,NA,NA,instructions,77,232681,0.0-6.0,30,Study 30,Session 30,"[{""page_index"":0,""viewing_time"":1845},{""page_index"":1,""viewing_time"":3716},{""page_index"":2,""viewing_time"":3618},{""page_index"":3,""viewing_time"":10684},{""page_index"":4,""viewing_time"":5765},{""page_index"":5,""viewing_time"":6734},{""page_index"":6,""viewing_time"":1866}]",34228,NA,NA,NA,NA,NA,NA,NA
NA,NA,NA,NA,NA,image-keyboard-response,78,239098,0.0-7.0-0.0-0.0,30,Study 30,Session 30,NA,3908,img/testing_events/Ab/Test_Ab_Event_13.jpg,n,response,e,NA,FALSE,Ab
NA,NA,NA,NA,NA,image-keyboard-response,79,240615,0.0-7.0-0.0-0.1,30,Study 30,Session 30,NA,1514,img/testing_events/Ab/Test_Ab_Event_24.jpg,n,response,n,NA,TRUE,Ab
NA,NA,NA,NA,NA,image-keyboard-response,80,245972,0.0-7.0-0.0-0.2,30,Study 30,Session 30,NA,5355,img/testing_events/Ab/Test_Ab_Event_7.jpg,e,response,c,NA,FALSE,Ab
NA,NA,NA,NA,NA,image-keyboard-response,81,249325,0.0-7.0-0.0-0.3,30,Study 30,Session 30,NA,3351,img/testing_events/Ab/Test_Ab_Event_3.jpg,c,response,c,NA,TRUE,Ab
NA,NA,NA,NA,NA,image-keyboard-response,82,251662,0.0-7.0-0.0-0.4,30,Study 30,Session 30,NA,2335,img/testing_events/Ab/Test_Ab_Event_22.jpg,u,response,u,NA,TRUE,Ab
NA,NA,NA,NA,NA,image-keyboard-response,83,253081,0.0-7.0-0.0-0.5,30,Study 30,Session 30,NA,1417,img/testing_events/Ab/Test_Ab_Event_21.jpg,e,response,e,NA,TRUE,Ab
NA,NA,NA,NA,NA,image-keyboard-response,84,255081,0.0-7.0-0.0-0.6,30,Study 30,Session 30,NA,1998,img/testing_events/Ab/Test_Ab_Event_23.jpg,c,response,c,NA,TRUE,Ab
NA,NA,NA,NA,NA,image-keyboard-response,85,256426,0.0-7.0-0.0-0.7,30,Study 30,Session 30,NA,1343,img/testing_events/Ab/Test_Ab_Event_2.jpg,u,response,u,NA,TRUE,Ab
NA,NA,NA,NA,NA,image-keyboard-response,86,258411,0.0-7.0-0.0-0.8,30,Study 30,Session 30,NA,1983,img/testing_events/Ab/Test_Ab_Event_8.jpg,n,response,n,NA,TRUE,Ab
NA,NA,NA,NA,NA,image-keyboard-response,87,262489,0.0-7.0-0.0-0.9,30,Study 30,Session 30,NA,4075,img/testing_events/Ab/Test_Ab_Event_4.jpg,c,response,n,NA,FALSE,Ab
NA,NA,NA,NA,NA,image-keyboard-response,88,266251,0.0-7.0-0.0-0.10,30,Study 30,Session 30,NA,3761,img/testing_events/Ab/Test_Ab_Event_19.jpg,c,response,c,NA,TRUE,Ab
NA,NA,NA,NA,NA,image-keyboard-response,89,267988,0.0-7.0-0.0-0.11,30,Study 30,Session 30,NA,1735,img/testing_events/Ab/Test_Ab_Event_18.jpg,u,response,u,NA,TRUE,Ab
NA,NA,NA,NA,NA,image-keyboard-response,90,272524,0.0-7.0-0.0-0.12,30,Study 30,Session 30,NA,4534,img/testing_events/Ab/Test_Ab_Event_10.jpg,e,response,u,NA,FALSE,Ab
NA,NA,NA,NA,NA,image-keyboard-response,91,275525,0.0-7.0-0.0-0.13,30,Study 30,Session 30,NA,2999,img/testing_events/Ab/Test_Ab_Event_12.jpg,n,response,n,NA,TRUE,Ab
NA,NA,NA,NA,NA,image-keyboard-response,92,277031,0.0-7.0-0.0-0.14,30,Study 30,Session 30,NA,1504,img/testing_events/Ab/Test_Ab_Event_6.jpg,u,response,u,NA,TRUE,Ab
NA,NA,NA,NA,NA,image-keyboard-response,93,278281,0.0-7.0-0.0-0.15,30,Study 30,Session 30,NA,1248,img/testing_events/Ab/Test_Ab_Event_11.jpg,c,response,c,NA,TRUE,Ab
NA,NA,NA,NA,NA,image-keyboard-response,94,279999,0.0-7.0-0.0-0.16,30,Study 30,Session 30,NA,1716,img/testing_events/Ab/Test_Ab_Event_1.jpg,e,response,e,NA,TRUE,Ab
NA,NA,NA,NA,NA,image-keyboard-response,95,281923,0.0-7.0-0.0-0.17,30,Study 30,Session 30,NA,1921,img/testing_events/Ab/Test_Ab_Event_14.jpg,u,response,u,NA,TRUE,Ab
NA,NA,NA,NA,NA,image-keyboard-response,96,284107,0.0-7.0-0.0-0.18,30,Study 30,Session 30,NA,2183,img/testing_events/Ab/Test_Ab_Event_15.jpg,c,response,c,NA,TRUE,Ab
NA,NA,NA,NA,NA,image-keyboard-response,97,285804,0.0-7.0-0.0-0.19,30,Study 30,Session 30,NA,1695,img/testing_events/Ab/Test_Ab_Event_5.jpg,e,response,e,NA,TRUE,Ab
NA,NA,NA,NA,NA,image-keyboard-response,98,290092,0.0-7.0-0.0-0.20,30,Study 30,Session 30,NA,4286,img/testing_events/Ab/Test_Ab_Event_16.jpg,n,response,n,NA,TRUE,Ab
NA,NA,NA,NA,NA,image-keyboard-response,99,294611,0.0-7.0-0.0-0.21,30,Study 30,Session 30,NA,4517,img/testing_events/Ab/Test_Ab_Event_20.jpg,n,response,n,NA,TRUE,Ab
NA,NA,NA,NA,NA,image-keyboard-response,100,299018,0.0-7.0-0.0-0.22,30,Study 30,Session 30,NA,4405,img/testing_events/Ab/Test_Ab_Event_9.jpg,u,response,e,NA,FALSE,Ab
NA,NA,NA,NA,NA,image-keyboard-response,101,300537,0.0-7.0-0.0-0.23,30,Study 30,Session 30,NA,1517,img/testing_events/Ab/Test_Ab_Event_17.jpg,e,response,e,NA,TRUE,Ab
NA,NA,NA,NA,NA,image-keyboard-response,102,304869,0.0-7.0-1.0-0.0,30,Study 30,Session 30,NA,4330,img/testing_events/Ac/Test_Ac_Event_3.jpg,n,response,n,NA,TRUE,Ac
NA,NA,NA,NA,NA,image-keyboard-response,103,307507,0.0-7.0-1.0-0.1,30,Study 30,Session 30,NA,2637,img/testing_events/Ac/Test_Ac_Event_13.jpg,u,response,u,NA,TRUE,Ac
NA,NA,NA,NA,NA,image-keyboard-response,104,309000,0.0-7.0-1.0-0.2,30,Study 30,Session 30,NA,1491,img/testing_events/Ac/Test_Ac_Event_18.jpg,c,response,c,NA,TRUE,Ac
NA,NA,NA,NA,NA,image-keyboard-response,105,310714,0.0-7.0-1.0-0.3,30,Study 30,Session 30,NA,1712,img/testing_events/Ac/Test_Ac_Event_15.jpg,n,response,n,NA,TRUE,Ac
NA,NA,NA,NA,NA,image-keyboard-response,106,312651,0.0-7.0-1.0-0.4,30,Study 30,Session 30,NA,1935,img/testing_events/Ac/Test_Ac_Event_14.jpg,n,response,c,NA,FALSE,Ac
NA,NA,NA,NA,NA,image-keyboard-response,107,313954,0.0-7.0-1.0-0.5,30,Study 30,Session 30,NA,1301,img/testing_events/Ac/Test_Ac_Event_22.jpg,c,response,c,NA,TRUE,Ac
NA,NA,NA,NA,NA,image-keyboard-response,108,316803,0.0-7.0-1.0-0.6,30,Study 30,Session 30,NA,2847,img/testing_events/Ac/Test_Ac_Event_10.jpg,n,response,c,NA,FALSE,Ac
NA,NA,NA,NA,NA,image-keyboard-response,109,319981,0.0-7.0-1.0-0.7,30,Study 30,Session 30,NA,3175,img/testing_events/Ac/Test_Ac_Event_7.jpg,n,response,n,NA,TRUE,Ac
NA,NA,NA,NA,NA,image-keyboard-response,110,322451,0.0-7.0-1.0-0.8,30,Study 30,Session 30,NA,2468,img/testing_events/Ac/Test_Ac_Event_8.jpg,e,response,e,NA,TRUE,Ac
NA,NA,NA,NA,NA,image-keyboard-response,111,323668,0.0-7.0-1.0-0.9,30,Study 30,Session 30,NA,1215,img/testing_events/Ac/Test_Ac_Event_9.jpg,u,response,u,NA,TRUE,Ac
NA,NA,NA,NA,NA,image-keyboard-response,112,328297,0.0-7.0-1.0-0.10,30,Study 30,Session 30,NA,4628,img/testing_events/Ac/Test_Ac_Event_6.jpg,c,response,c,NA,TRUE,Ac
NA,NA,NA,NA,NA,image-keyboard-response,113,329948,0.0-7.0-1.0-0.11,30,Study 30,Session 30,NA,1649,img/testing_events/Ac/Test_Ac_Event_24.jpg,e,response,e,NA,TRUE,Ac
NA,NA,NA,NA,NA,image-keyboard-response,114,332226,0.0-7.0-1.0-0.12,30,Study 30,Session 30,NA,2276,img/testing_events/Ac/Test_Ac_Event_4.jpg,e,response,e,NA,TRUE,Ac
NA,NA,NA,NA,NA,image-keyboard-response,115,333484,0.0-7.0-1.0-0.13,30,Study 30,Session 30,NA,1256,img/testing_events/Ac/Test_Ac_Event_21.jpg,u,response,u,NA,TRUE,Ac
NA,NA,NA,NA,NA,image-keyboard-response,116,335792,0.0-7.0-1.0-0.14,30,Study 30,Session 30,NA,2306,img/testing_events/Ac/Test_Ac_Event_1.jpg,u,response,u,NA,TRUE,Ac
NA,NA,NA,NA,NA,image-keyboard-response,117,337927,0.0-7.0-1.0-0.15,30,Study 30,Session 30,NA,2133,img/testing_events/Ac/Test_Ac_Event_2.jpg,c,response,c,NA,TRUE,Ac
NA,NA,NA,NA,NA,image-keyboard-response,118,340265,0.0-7.0-1.0-0.16,30,Study 30,Session 30,NA,2337,img/testing_events/Ac/Test_Ac_Event_19.jpg,n,response,n,NA,TRUE,Ac
NA,NA,NA,NA,NA,image-keyboard-response,119,341835,0.0-7.0-1.0-0.17,30,Study 30,Session 30,NA,1568,img/testing_events/Ac/Test_Ac_Event_12.jpg,e,response,e,NA,TRUE,Ac
NA,NA,NA,NA,NA,image-keyboard-response,120,343053,0.0-7.0-1.0-0.18,30,Study 30,Session 30,NA,1216,img/testing_events/Ac/Test_Ac_Event_5.jpg,u,response,u,NA,TRUE,Ac
NA,NA,NA,NA,NA,image-keyboard-response,121,345335,0.0-7.0-1.0-0.19,30,Study 30,Session 30,NA,2281,img/testing_events/Ac/Test_Ac_Event_20.jpg,e,response,e,NA,TRUE,Ac
NA,NA,NA,NA,NA,image-keyboard-response,122,348898,0.0-7.0-1.0-0.20,30,Study 30,Session 30,NA,3560,img/testing_events/Ac/Test_Ac_Event_23.jpg,n,response,n,NA,TRUE,Ac
NA,NA,NA,NA,NA,image-keyboard-response,123,350998,0.0-7.0-1.0-0.21,30,Study 30,Session 30,NA,2098,img/testing_events/Ac/Test_Ac_Event_11.jpg,n,response,n,NA,TRUE,Ac
NA,NA,NA,NA,NA,image-keyboard-response,124,352169,0.0-7.0-1.0-0.22,30,Study 30,Session 30,NA,1170,img/testing_events/Ac/Test_Ac_Event_17.jpg,u,response,u,NA,TRUE,Ac
NA,NA,NA,NA,NA,image-keyboard-response,125,353595,0.0-7.0-1.0-0.23,30,Study 30,Session 30,NA,1423,img/testing_events/Ac/Test_Ac_Event_16.jpg,e,response,e,NA,TRUE,Ac
NA,NA,NA,NA,NA,image-keyboard-response,126,355566,0.0-7.0-2.0-0.0,30,Study 30,Session 30,NA,1969,img/testing_events/Ba/Test_Ba_Event_17.jpg,c,response,c,NA,TRUE,Ba
NA,NA,NA,NA,NA,image-keyboard-response,127,362578,0.0-7.0-2.0-0.1,30,Study 30,Session 30,NA,7010,img/testing_events/Ba/Test_Ba_Event_13.jpg,c,response,c,NA,TRUE,Ba
NA,NA,NA,NA,NA,image-keyboard-response,128,364995,0.0-7.0-2.0-0.2,30,Study 30,Session 30,NA,2416,img/testing_events/Ba/Test_Ba_Event_24.jpg,u,response,u,NA,TRUE,Ba
NA,NA,NA,NA,NA,image-keyboard-response,129,367789,0.0-7.0-2.0-0.3,30,Study 30,Session 30,NA,2793,img/testing_events/Ba/Test_Ba_Event_19.jpg,e,response,e,NA,TRUE,Ba
NA,NA,NA,NA,NA,image-keyboard-response,130,370019,0.0-7.0-2.0-0.4,30,Study 30,Session 30,NA,2228,img/testing_events/Ba/Test_Ba_Event_4.jpg,u,response,u,NA,TRUE,Ba
NA,NA,NA,NA,NA,image-keyboard-response,131,371413,0.0-7.0-2.0-0.5,30,Study 30,Session 30,NA,1392,img/testing_events/Ba/Test_Ba_Event_3.jpg,e,response,e,NA,TRUE,Ba
NA,NA,NA,NA,NA,image-keyboard-response,132,373055,0.0-7.0-2.0-0.6,30,Study 30,Session 30,NA,1640,img/testing_events/Ba/Test_Ba_Event_14.jpg,n,response,n,NA,TRUE,Ba
NA,NA,NA,NA,NA,image-keyboard-response,133,374701,0.0-7.0-2.0-0.7,30,Study 30,Session 30,NA,1644,img/testing_events/Ba/Test_Ba_Event_11.jpg,e,response,e,NA,TRUE,Ba
NA,NA,NA,NA,NA,image-keyboard-response,134,377683,0.0-7.0-2.0-0.8,30,Study 30,Session 30,NA,2980,img/testing_events/Ba/Test_Ba_Event_18.jpg,n,response,n,NA,TRUE,Ba
NA,NA,NA,NA,NA,image-keyboard-response,135,380386,0.0-7.0-2.0-0.9,30,Study 30,Session 30,NA,2702,img/testing_events/Ba/Test_Ba_Event_1.jpg,c,response,c,NA,TRUE,Ba
NA,NA,NA,NA,NA,image-keyboard-response,136,382179,0.0-7.0-2.0-0.10,30,Study 30,Session 30,NA,1791,img/testing_events/Ba/Test_Ba_Event_8.jpg,u,response,u,NA,TRUE,Ba
NA,NA,NA,NA,NA,image-keyboard-response,137,383541,0.0-7.0-2.0-0.11,30,Study 30,Session 30,NA,1360,img/testing_events/Ba/Test_Ba_Event_21.jpg,c,response,c,NA,TRUE,Ba
NA,NA,NA,NA,NA,image-keyboard-response,138,384881,0.0-7.0-2.0-0.12,30,Study 30,Session 30,NA,1338,img/testing_events/Ba/Test_Ba_Event_2.jpg,n,response,n,NA,TRUE,Ba
NA,NA,NA,NA,NA,image-keyboard-response,139,386371,0.0-7.0-2.0-0.13,30,Study 30,Session 30,NA,1488,img/testing_events/Ba/Test_Ba_Event_22.jpg,n,response,n,NA,TRUE,Ba
NA,NA,NA,NA,NA,image-keyboard-response,140,388189,0.0-7.0-2.0-0.14,30,Study 30,Session 30,NA,1816,img/testing_events/Ba/Test_Ba_Event_16.jpg,u,response,u,NA,TRUE,Ba
NA,NA,NA,NA,NA,image-keyboard-response,141,389854,0.0-7.0-2.0-0.15,30,Study 30,Session 30,NA,1663,img/testing_events/Ba/Test_Ba_Event_6.jpg,n,response,n,NA,TRUE,Ba
NA,NA,NA,NA,NA,image-keyboard-response,142,393651,0.0-7.0-2.0-0.16,30,Study 30,Session 30,NA,3795,img/testing_events/Ba/Test_Ba_Event_10.jpg,c,response,n,NA,FALSE,Ba
NA,NA,NA,NA,NA,image-keyboard-response,143,394771,0.0-7.0-2.0-0.17,30,Study 30,Session 30,NA,1118,img/testing_events/Ba/Test_Ba_Event_5.jpg,c,response,c,NA,TRUE,Ba
NA,NA,NA,NA,NA,image-keyboard-response,144,395842,0.0-7.0-2.0-0.18,30,Study 30,Session 30,NA,1069,img/testing_events/Ba/Test_Ba_Event_15.jpg,e,response,e,NA,TRUE,Ba
NA,NA,NA,NA,NA,image-keyboard-response,145,398507,0.0-7.0-2.0-0.19,30,Study 30,Session 30,NA,2663,img/testing_events/Ba/Test_Ba_Event_12.jpg,n,response,u,NA,FALSE,Ba
NA,NA,NA,NA,NA,image-keyboard-response,146,400411,0.0-7.0-2.0-0.20,30,Study 30,Session 30,NA,1902,img/testing_events/Ba/Test_Ba_Event_23.jpg,e,response,e,NA,TRUE,Ba
NA,NA,NA,NA,NA,image-keyboard-response,147,402365,0.0-7.0-2.0-0.21,30,Study 30,Session 30,NA,1952,img/testing_events/Ba/Test_Ba_Event_9.jpg,c,response,c,NA,TRUE,Ba
NA,NA,NA,NA,NA,image-keyboard-response,148,404049,0.0-7.0-2.0-0.22,30,Study 30,Session 30,NA,1683,img/testing_events/Ba/Test_Ba_Event_20.jpg,u,response,u,NA,TRUE,Ba
NA,NA,NA,NA,NA,image-keyboard-response,149,406814,0.0-7.0-2.0-0.23,30,Study 30,Session 30,NA,2763,img/testing_events/Ba/Test_Ba_Event_7.jpg,e,response,e,NA,TRUE,Ba
NA,NA,NA,NA,NA,image-keyboard-response,150,407853,0.0-7.0-3.0-0.0,30,Study 30,Session 30,NA,1037,img/testing_events/Ca/Test_Ca_Event_15.jpg,c,response,c,NA,TRUE,Ca
NA,NA,NA,NA,NA,image-keyboard-response,151,409949,0.0-7.0-3.0-0.1,30,Study 30,Session 30,NA,2095,img/testing_events/Ca/Test_Ca_Event_8.jpg,n,response,n,NA,TRUE,Ca
NA,NA,NA,NA,NA,image-keyboard-response,152,412127,0.0-7.0-3.0-0.2,30,Study 30,Session 30,NA,2176,img/testing_events/Ca/Test_Ca_Event_13.jpg,e,response,e,NA,TRUE,Ca
NA,NA,NA,NA,NA,image-keyboard-response,153,413549,0.0-7.0-3.0-0.3,30,Study 30,Session 30,NA,1421,img/testing_events/Ca/Test_Ca_Event_4.jpg,n,response,n,NA,TRUE,Ca
NA,NA,NA,NA,NA,image-keyboard-response,154,414722,0.0-7.0-3.0-0.4,30,Study 30,Session 30,NA,1171,img/testing_events/Ca/Test_Ca_Event_5.jpg,e,response,e,NA,TRUE,Ca
NA,NA,NA,NA,NA,image-keyboard-response,155,415971,0.0-7.0-3.0-0.5,30,Study 30,Session 30,NA,1248,img/testing_events/Ca/Test_Ca_Event_14.jpg,u,response,u,NA,TRUE,Ca
NA,NA,NA,NA,NA,image-keyboard-response,156,417049,0.0-7.0-3.0-0.6,30,Study 30,Session 30,NA,1075,img/testing_events/Ca/Test_Ca_Event_9.jpg,e,response,e,NA,TRUE,Ca
NA,NA,NA,NA,NA,image-keyboard-response,157,418069,0.0-7.0-3.0-0.7,30,Study 30,Session 30,NA,1018,img/testing_events/Ca/Test_Ca_Event_21.jpg,e,response,e,NA,TRUE,Ca
NA,NA,NA,NA,NA,image-keyboard-response,158,418999,0.0-7.0-3.0-0.8,30,Study 30,Session 30,NA,928,img/testing_events/Ca/Test_Ca_Event_17.jpg,e,response,e,NA,TRUE,Ca
NA,NA,NA,NA,NA,image-keyboard-response,159,420060,0.0-7.0-3.0-0.9,30,Study 30,Session 30,NA,1059,img/testing_events/Ca/Test_Ca_Event_7.jpg,n,response,c,NA,FALSE,Ca
NA,NA,NA,NA,NA,image-keyboard-response,160,422896,0.0-7.0-3.0-0.10,30,Study 30,Session 30,NA,2834,img/testing_events/Ca/Test_Ca_Event_24.jpg,n,response,n,NA,TRUE,Ca
NA,NA,NA,NA,NA,image-keyboard-response,161,425612,0.0-7.0-3.0-0.11,30,Study 30,Session 30,NA,2714,img/testing_events/Ca/Test_Ca_Event_22.jpg,u,response,u,NA,TRUE,Ca
NA,NA,NA,NA,NA,image-keyboard-response,162,427117,0.0-7.0-3.0-0.12,30,Study 30,Session 30,NA,1494,img/testing_events/Ca/Test_Ca_Event_23.jpg,c,response,c,NA,TRUE,Ca
NA,NA,NA,NA,NA,image-keyboard-response,163,428201,0.0-7.0-3.0-0.13,30,Study 30,Session 30,NA,1082,img/testing_events/Ca/Test_Ca_Event_1.jpg,e,response,e,NA,TRUE,Ca
NA,NA,NA,NA,NA,image-keyboard-response,164,431285,0.0-7.0-3.0-0.14,30,Study 30,Session 30,NA,3082,img/testing_events/Ca/Test_Ca_Event_20.jpg,n,response,n,NA,TRUE,Ca
NA,NA,NA,NA,NA,image-keyboard-response,165,432625,0.0-7.0-3.0-0.15,30,Study 30,Session 30,NA,1338,img/testing_events/Ca/Test_Ca_Event_18.jpg,u,response,u,NA,TRUE,Ca
NA,NA,NA,NA,NA,image-keyboard-response,166,434017,0.0-7.0-3.0-0.16,30,Study 30,Session 30,NA,1390,img/testing_events/Ca/Test_Ca_Event_16.jpg,n,response,n,NA,TRUE,Ca
NA,NA,NA,NA,NA,image-keyboard-response,167,435393,0.0-7.0-3.0-0.17,30,Study 30,Session 30,NA,1373,img/testing_events/Ca/Test_Ca_Event_10.jpg,u,response,u,NA,TRUE,Ca
NA,NA,NA,NA,NA,image-keyboard-response,168,437540,0.0-7.0-3.0-0.18,30,Study 30,Session 30,NA,2145,img/testing_events/Ca/Test_Ca_Event_12.jpg,n,response,n,NA,TRUE,Ca
NA,NA,NA,NA,NA,image-keyboard-response,169,438527,0.0-7.0-3.0-0.19,30,Study 30,Session 30,NA,986,img/testing_events/Ca/Test_Ca_Event_11.jpg,c,response,c,NA,TRUE,Ca
NA,NA,NA,NA,NA,image-keyboard-response,170,439537,0.0-7.0-3.0-0.20,30,Study 30,Session 30,NA,1007,img/testing_events/Ca/Test_Ca_Event_6.jpg,u,response,u,NA,TRUE,Ca
NA,NA,NA,NA,NA,image-keyboard-response,171,443482,0.0-7.0-3.0-0.21,30,Study 30,Session 30,NA,3944,img/testing_events/Ca/Test_Ca_Event_2.jpg,u,response,u,NA,TRUE,Ca
NA,NA,NA,NA,NA,image-keyboard-response,172,444615,0.0-7.0-3.0-0.22,30,Study 30,Session 30,NA,1131,img/testing_events/Ca/Test_Ca_Event_3.jpg,c,response,c,NA,TRUE,Ca
NA,NA,NA,NA,NA,image-keyboard-response,173,446608,0.0-7.0-3.0-0.23,30,Study 30,Session 30,NA,1990,img/testing_events/Ca/Test_Ca_Event_19.jpg,c,response,c,NA,TRUE,Ca
NA,NA,NA,NA,NA,image-keyboard-response,174,448602,0.0-7.0-4.0-0.0,30,Study 30,Session 30,NA,1993,img/testing_events/Bc/Test_Bc_Event_16.jpg,c,response,c,NA,TRUE,Bc
NA,NA,NA,NA,NA,image-keyboard-response,175,452403,0.0-7.0-4.0-0.1,30,Study 30,Session 30,NA,3798,img/testing_events/Bc/Test_Bc_Event_3.jpg,u,response,u,NA,TRUE,Bc
NA,NA,NA,NA,NA,image-keyboard-response,176,453790,0.0-7.0-4.0-0.2,30,Study 30,Session 30,NA,1385,img/testing_events/Bc/Test_Bc_Event_14.jpg,e,response,e,NA,TRUE,Bc
NA,NA,NA,NA,NA,image-keyboard-response,177,457121,0.0-7.0-4.0-0.3,30,Study 30,Session 30,NA,3329,img/testing_events/Bc/Test_Bc_Event_12.jpg,c,response,c,NA,TRUE,Bc
NA,NA,NA,NA,NA,image-keyboard-response,178,458121,0.0-7.0-4.0-0.4,30,Study 30,Session 30,NA,998,img/testing_events/Bc/Test_Bc_Event_11.jpg,u,response,u,NA,TRUE,Bc
NA,NA,NA,NA,NA,image-keyboard-response,179,459477,0.0-7.0-4.0-0.5,30,Study 30,Session 30,NA,1354,img/testing_events/Bc/Test_Bc_Event_19.jpg,c,response,u,NA,FALSE,Bc
NA,NA,NA,NA,NA,image-keyboard-response,180,460976,0.0-7.0-4.0-0.6,30,Study 30,Session 30,NA,1497,img/testing_events/Bc/Test_Bc_Event_8.jpg,c,response,c,NA,TRUE,Bc
NA,NA,NA,NA,NA,image-keyboard-response,181,462392,0.0-7.0-4.0-0.7,30,Study 30,Session 30,NA,1414,img/testing_events/Bc/Test_Bc_Event_6.jpg,e,response,e,NA,TRUE,Bc
NA,NA,NA,NA,NA,image-keyboard-response,182,463965,0.0-7.0-4.0-0.8,30,Study 30,Session 30,NA,1571,img/testing_events/Bc/Test_Bc_Event_13.jpg,n,response,n,NA,TRUE,Bc
NA,NA,NA,NA,NA,image-keyboard-response,183,465659,0.0-7.0-4.0-0.9,30,Study 30,Session 30,NA,1692,img/testing_events/Bc/Test_Bc_Event_9.jpg,n,response,n,NA,TRUE,Bc
NA,NA,NA,NA,NA,image-keyboard-response,184,466757,0.0-7.0-4.0-0.10,30,Study 30,Session 30,NA,1096,img/testing_events/Bc/Test_Bc_Event_18.jpg,e,response,e,NA,TRUE,Bc
NA,NA,NA,NA,NA,image-keyboard-response,185,468933,0.0-7.0-4.0-0.11,30,Study 30,Session 30,NA,2173,img/testing_events/Bc/Test_Bc_Event_21.jpg,n,response,n,NA,TRUE,Bc
NA,NA,NA,NA,NA,image-keyboard-response,186,470372,0.0-7.0-4.0-0.12,30,Study 30,Session 30,NA,1437,img/testing_events/Bc/Test_Bc_Event_20.jpg,c,response,c,NA,TRUE,Bc
NA,NA,NA,NA,NA,image-keyboard-response,187,471603,0.0-7.0-4.0-0.13,30,Study 30,Session 30,NA,1228,img/testing_events/Bc/Test_Bc_Event_5.jpg,n,response,n,NA,TRUE,Bc
NA,NA,NA,NA,NA,image-keyboard-response,188,473461,0.0-7.0-4.0-0.14,30,Study 30,Session 30,NA,1857,img/testing_events/Bc/Test_Bc_Event_15.jpg,u,response,u,NA,TRUE,Bc
NA,NA,NA,NA,NA,image-keyboard-response,189,476557,0.0-7.0-4.0-0.15,30,Study 30,Session 30,NA,3094,img/testing_events/Bc/Test_Bc_Event_7.jpg,u,response,u,NA,TRUE,Bc
NA,NA,NA,NA,NA,image-keyboard-response,190,478156,0.0-7.0-4.0-0.16,30,Study 30,Session 30,NA,1597,img/testing_events/Bc/Test_Bc_Event_4.jpg,c,response,c,NA,TRUE,Bc
NA,NA,NA,NA,NA,image-keyboard-response,191,479830,0.0-7.0-4.0-0.17,30,Study 30,Session 30,NA,1673,img/testing_events/Bc/Test_Bc_Event_23.jpg,u,response,u,NA,TRUE,Bc
NA,NA,NA,NA,NA,image-keyboard-response,192,482736,0.0-7.0-4.0-0.18,30,Study 30,Session 30,NA,2904,img/testing_events/Bc/Test_Bc_Event_10.jpg,e,response,e,NA,TRUE,Bc
NA,NA,NA,NA,NA,image-keyboard-response,193,485329,0.0-7.0-4.0-0.19,30,Study 30,Session 30,NA,2592,img/testing_events/Bc/Test_Bc_Event_2.jpg,e,response,e,NA,TRUE,Bc
NA,NA,NA,NA,NA,image-keyboard-response,194,486787,0.0-7.0-4.0-0.20,30,Study 30,Session 30,NA,1456,img/testing_events/Bc/Test_Bc_Event_24.jpg,c,response,c,NA,TRUE,Bc
NA,NA,NA,NA,NA,image-keyboard-response,195,487988,0.0-7.0-4.0-0.21,30,Study 30,Session 30,NA,1199,img/testing_events/Bc/Test_Bc_Event_17.jpg,n,response,n,NA,TRUE,Bc
NA,NA,NA,NA,NA,image-keyboard-response,196,489071,0.0-7.0-4.0-0.22,30,Study 30,Session 30,NA,1080,img/testing_events/Bc/Test_Bc_Event_22.jpg,e,response,e,NA,TRUE,Bc
NA,NA,NA,NA,NA,image-keyboard-response,197,490351,0.0-7.0-4.0-0.23,30,Study 30,Session 30,NA,1278,img/testing_events/Bc/Test_Bc_Event_1.jpg,u,response,n,NA,FALSE,Bc
NA,NA,NA,NA,NA,image-keyboard-response,198,491576,0.0-7.0-5.0-0.0,30,Study 30,Session 30,NA,1223,img/testing_events/Cb/Test_Cb_Event_2.jpg,c,response,c,NA,TRUE,Cb
NA,NA,NA,NA,NA,image-keyboard-response,199,494584,0.0-7.0-5.0-0.1,30,Study 30,Session 30,NA,3006,img/testing_events/Cb/Test_Cb_Event_10.jpg,c,response,c,NA,TRUE,Cb
NA,NA,NA,NA,NA,image-keyboard-response,200,496149,0.0-7.0-5.0-0.2,30,Study 30,Session 30,NA,1564,img/testing_events/Cb/Test_Cb_Event_17.jpg,u,response,u,NA,TRUE,Cb
NA,NA,NA,NA,NA,image-keyboard-response,201,497519,0.0-7.0-5.0-0.3,30,Study 30,Session 30,NA,1369,img/testing_events/Cb/Test_Cb_Event_7.jpg,n,response,n,NA,TRUE,Cb
NA,NA,NA,NA,NA,image-keyboard-response,202,499146,0.0-7.0-5.0-0.4,30,Study 30,Session 30,NA,1625,img/testing_events/Cb/Test_Cb_Event_13.jpg,e,response,u,NA,FALSE,Cb
NA,NA,NA,NA,NA,image-keyboard-response,203,500171,0.0-7.0-5.0-0.5,30,Study 30,Session 30,NA,1024,img/testing_events/Cb/Test_Cb_Event_21.jpg,u,response,u,NA,TRUE,Cb
NA,NA,NA,NA,NA,image-keyboard-response,204,503660,0.0-7.0-5.0-0.6,30,Study 30,Session 30,NA,3487,img/testing_events/Cb/Test_Cb_Event_8.jpg,e,response,e,NA,TRUE,Cb
NA,NA,NA,NA,NA,image-keyboard-response,205,504849,0.0-7.0-5.0-0.7,30,Study 30,Session 30,NA,1187,img/testing_events/Cb/Test_Cb_Event_11.jpg,n,response,n,NA,TRUE,Cb
NA,NA,NA,NA,NA,image-keyboard-response,206,505951,0.0-7.0-5.0-0.8,30,Study 30,Session 30,NA,1100,img/testing_events/Cb/Test_Cb_Event_12.jpg,e,response,e,NA,TRUE,Cb
NA,NA,NA,NA,NA,image-keyboard-response,207,507411,0.0-7.0-5.0-0.9,30,Study 30,Session 30,NA,1457,img/testing_events/Cb/Test_Cb_Event_14.jpg,c,response,c,NA,TRUE,Cb
NA,NA,NA,NA,NA,image-keyboard-response,208,509342,0.0-7.0-5.0-0.10,30,Study 30,Session 30,NA,1928,img/testing_events/Cb/Test_Cb_Event_1.jpg,u,response,u,NA,TRUE,Cb
NA,NA,NA,NA,NA,image-keyboard-response,209,510671,0.0-7.0-5.0-0.11,30,Study 30,Session 30,NA,1328,img/testing_events/Cb/Test_Cb_Event_15.jpg,n,response,n,NA,TRUE,Cb
NA,NA,NA,NA,NA,image-keyboard-response,210,517033,0.0-7.0-5.0-0.12,30,Study 30,Session 30,NA,6360,img/testing_events/Cb/Test_Cb_Event_3.jpg,n,response,n,NA,TRUE,Cb
NA,NA,NA,NA,NA,image-keyboard-response,211,518293,0.0-7.0-5.0-0.13,30,Study 30,Session 30,NA,1258,img/testing_events/Cb/Test_Cb_Event_5.jpg,u,response,u,NA,TRUE,Cb
NA,NA,NA,NA,NA,image-keyboard-response,212,524955,0.0-7.0-5.0-0.14,30,Study 30,Session 30,NA,6660,img/testing_events/Cb/Test_Cb_Event_19.jpg,n,response,n,NA,TRUE,Cb
NA,NA,NA,NA,NA,image-keyboard-response,213,526462,0.0-7.0-5.0-0.15,30,Study 30,Session 30,NA,1505,img/testing_events/Cb/Test_Cb_Event_18.jpg,c,response,c,NA,TRUE,Cb
NA,NA,NA,NA,NA,image-keyboard-response,214,527597,0.0-7.0-5.0-0.16,30,Study 30,Session 30,NA,1133,img/testing_events/Cb/Test_Cb_Event_23.jpg,n,response,n,NA,TRUE,Cb
NA,NA,NA,NA,NA,image-keyboard-response,215,528611,0.0-7.0-5.0-0.17,30,Study 30,Session 30,NA,1013,img/testing_events/Cb/Test_Cb_Event_4.jpg,e,response,e,NA,TRUE,Cb
NA,NA,NA,NA,NA,image-keyboard-response,216,530677,0.0-7.0-5.0-0.18,30,Study 30,Session 30,NA,2064,img/testing_events/Cb/Test_Cb_Event_24.jpg,e,response,e,NA,TRUE,Cb
NA,NA,NA,NA,NA,image-keyboard-response,217,531879,0.0-7.0-5.0-0.19,30,Study 30,Session 30,NA,1199,img/testing_events/Cb/Test_Cb_Event_6.jpg,c,response,c,NA,TRUE,Cb
NA,NA,NA,NA,NA,image-keyboard-response,218,534296,0.0-7.0-5.0-0.20,30,Study 30,Session 30,NA,2416,img/testing_events/Cb/Test_Cb_Event_20.jpg,e,response,e,NA,TRUE,Cb
NA,NA,NA,NA,NA,image-keyboard-response,219,537071,0.0-7.0-5.0-0.21,30,Study 30,Session 30,NA,2773,img/testing_events/Cb/Test_Cb_Event_22.jpg,c,response,c,NA,TRUE,Cb
NA,NA,NA,NA,NA,image-keyboard-response,220,538049,0.0-7.0-5.0-0.22,30,Study 30,Session 30,NA,976,img/testing_events/Cb/Test_Cb_Event_16.jpg,e,response,e,NA,TRUE,Cb
NA,NA,NA,NA,NA,image-keyboard-response,221,541484,0.0-7.0-5.0-0.23,30,Study 30,Session 30,NA,3432,img/testing_events/Cb/Test_Cb_Event_9.jpg,u,response,u,NA,TRUE,Cb
NA,NA,NA,NA,NA,survey-text,222,549198,0.0-8.0,30,Study 30,Session 30,NA,7698,NA,"{""Q0"":""No"",""Q1"":""No"",""Q2"":""No""}",NA,NA,NA,NA,NA
NA,NA,NA,NA,NA,survey-html-form,223,566184,0.0-9.0,30,Study 30,Session 30,NA,16983,NA,"{""Gender"":""Female"",""Age"":""24"",""ColorBlind"":""No"",""Education"":""Bachelors degree"",""Income"":""$75,000-$99,999"",""Race"":""White"",""Fluent"":""Yes"",""AgeEnglish"":""0"",""Country"":""United States""}",NA,NA,NA,NA,NA
TRUE,NA,NA,NA,NA,fullscreen,224,566186,0.0-10.0,30,Study 30,Session 30,NA,NA,NA,NA,NA,NA,NA,NA,NA
