success,timeout,failed_images,failed_audio,failed_video,trial_type,trial_index,time_elapsed,internal_node_id,subject_id,study_id,session_id,view_history,rt,stimulus,response,task,correct_response,attention_duration,correct,retrieval_group
TRUE,FALSE,[],[],[],preload,0,1101,0.0-0.0,39,Study 39,Session 39,NA,NA,NA,NA,NA,NA,NA,NA,NA
TRUE,NA,NA,NA,NA,fullscreen,1,16526,0.0-1.0,39,Study 39,Session 39,NA,NA,NA,NA,NA,NA,NA,NA,NA
NA,NA,NA,NA,NA,instructions,2,24888,0.0-2.0,39,Study 39,Session 39,"[{""page_index"":0,""viewing_time"":8361}]",8361,NA,NA,NA,NA,NA,NA,NA
NA,NA,NA,NA,NA,html-keyboard-response,3,32117,0.0-3.0,39,Study 39,Session 39,NA,7229,"Welcome to the experiment. <br /><br />This experiment will take about 20 minutes. Please complete all in one sitting. <br /><br />For this study, <strong>please use</strong> a laptop or desktop computer (not a mobile phone or tablet). Also, please use either <u>Chrome or Firefox</u>. <br /><br />Once you begin, <strong>DO NOT</strong> refresh the browser, as the experiment will reset and you will lose your progress. <br /><br />Press the <strong class=""upperline"">B</strong> key on your keyboard to begin.",b,NA,NA,NA,NA,NA
NA,NA,NA,NA,NA,instructions,4,52744,0.0-4.0,39,Study 39,Session 39,"[{""page_index"":0,""viewing_time"":5610},{""page_index"":1,""viewing_time"":11815},{""page_index"":2,""viewing_time"":2196}]",19621,NA,NA,NA,NA,NA,NA,NA
NA,NA,NA,NA,NA,html-keyboard-response,5,55755,0.0-5.0-0.0,39,Study 39,Session 39,NA,null,"<div style=""font-size:60px;"">+</div>",null,fixation,NA,NA,NA,NA
NA,NA,NA,NA,NA,image-keyboard-response,6,61758,0.0-5.0-1.0,39,Study 39,Session 39,NA,null,img/encoding_events/Event_1.jpg,null,NA,NA,NA,NA,NA
NA,NA,NA,NA,NA,html-keyboard-response,7,61760,0.0-5.0-2.0,39,Study 39,Session 39,NA,null,Please press the <strong><u>k</u></strong> key to continue,null,response,k,0,FALSE,NA
NA,NA,NA,NA,NA,html-keyboard-response,8,62261,0.0-5.0-0.1,39,Study 39,Session 39,NA,null,"<div style=""font-size:60px;"">+</div>",null,fixation,NA,NA,NA,NA
NA,NA,NA,NA,NA,image-keyboard-response,9,68274,0.0-5.0-1.1,39,Study 39,Session 39,NA,null,img/encoding_events/Event_2.jpg,null,NA,NA,NA,NA,NA
NA,NA,NA,NA,NA,html-keyboard-response,10,68279,0.0-5.0-2.1,39,Study 39,Session 39,NA,null,Please press the <strong><u>j</u></strong> key to continue,null,response,j,0,FALSE,NA
NA,NA,NA,NA,NA,html-keyboard-response,11,68790,0.0-5.0-0.2,39,Study 39,Session 39,NA,null,"<div style=""font-size:60px;"">+</div>",null,fixation,NA,NA,NA,NA
NA,NA,NA,NA,NA,image-keyboard-response,12,74796,0.0-5.0-1.2,39,Study 39,Session 39,NA,null,img/encoding_events/Event_7.jpg,null,NA,NA,NA,NA,NA
NA,NA,NA,NA,NA,html-keyboard-response,13,74801,0.0-5.0-2.2,39,Study 39,Session 39,NA,null,Please press the <strong><u>f</u></strong> key to continue,null,response,f,0,FALSE,NA
NA,NA,NA,NA,NA,html-keyboard-response,14,75310,0.0-5.0-0.3,39,Study 39,Session 39,NA,null,"<div style=""font-size:60px;"">+</div>",null,fixation,NA,NA,NA,NA
NA,NA,NA,NA,NA,image-keyboard-response,15,81326,0.0-5.0-1.3,39,Study 39,Session 39,NA,null,img/encoding_events/Event_3.jpg,null,NA,NA,NA,NA,NA
NA,NA,NA,NA,NA,html-keyboard-response,16,83239,0.0-5.0-2.3,39,Study 39,Session 39,NA,1912,Please press the <strong><u>j</u></strong> key to continue,j,response,j,6000,TRUE,NA
NA,NA,NA,NA,NA,html-keyboard-response,17,83740,0.0-5.0-0.4,39,Study 39,Session 39,NA,null,"<div style=""font-size:60px;"">+</div>",null,fixation,NA,NA,NA,NA
NA,NA,NA,NA,NA,image-keyboard-response,18,89745,0.0-5.0-1.4,39,Study 39,Session 39,NA,null,img/encoding_events/Event_18.jpg,null,NA,NA,NA,NA,NA
NA,NA,NA,NA,NA,html-keyboard-response,19,89746,0.0-5.0-2.4,39,Study 39,Session 39,NA,null,Please press the <strong><u>j</u></strong> key to continue,null,response,j,0,FALSE,NA
NA,NA,NA,NA,NA,html-keyboard-response,20,90260,0.0-5.0-0.5,39,Study 39,Session 39,NA,null,"<div style=""font-size:60px;"">+</div>",null,fixation,NA,NA,NA,NA
NA,NA,NA,NA,NA,image-keyboard-response,21,96263,0.0-5.0-1.5,39,Study 39,Session 39,NA,null,img/encoding_events/Event_10.jpg,null,NA,NA,NA,NA,NA
NA,NA,NA,NA,NA,html-keyboard-response,22,96268,0.0-5.0-2.5,39,Study 39,Session 39,NA,null,Please press the <strong><u>f</u></strong> key to continue,null,response,f,0,FALSE,NA
NA,NA,NA,NA,NA,html-keyboard-response,23,96782,0.0-5.0-0.6,39,Study 39,Session 39,NA,null,"<div style=""font-size:60px;"">+</div>",null,fixation,NA,NA,NA,NA
NA,NA,NA,NA,NA,image-keyboard-response,24,102796,0.0-5.0-1.6,39,Study 39,Session 39,NA,null,img/encoding_events/Event_4.jpg,null,NA,NA,NA,NA,NA
NA,NA,NA,NA,NA,html-keyboard-response,25,102802,0.0-5.0-2.6,39,Study 39,Session 39,NA,null,Please press the <strong><u>s</u></strong> key to continue,null,response,s,0,FALSE,NA
NA,NA,NA,NA,NA,html-keyboard-response,26,103317,0.0-5.0-0.7,39,Study 39,Session 39,NA,null,"<div style=""font-size:60px;"">+</div>",null,fixation,NA,NA,NA,NA
NA,NA,NA,NA,NA,image-keyboard-response,27,109328,0.0-5.0-1.7,39,Study 39,Session 39,NA,null,img/encoding_events/Event_20.jpg,null,NA,NA,NA,NA,NA
NA,NA,NA,NA,NA,html-keyboard-response,28,116028,0.0-5.0-2.7,39,Study 39,Session 39,NA,null,Please press the <strong><u>j</u></strong> key to continue,null,response,j,6000,FALSE,NA
NA,NA,NA,NA,NA,html-keyboard-response,29,116538,0.0-5.0-0.8,39,Study 39,Session 39,NA,null,"<div style=""font-size:60px;"">+</div>",null,fixation,NA,NA,NA,NA
NA,NA,NA,NA,NA,image-keyboard-response,30,122552,0.0-5.0-1.8,39,Study 39,Session 39,NA,null,img/encoding_events/Event_5.jpg,null,NA,NA,NA,NA,NA
NA,NA,NA,NA,NA,html-keyboard-response,31,122557,0.0-5.0-2.8,39,Study 39,Session 39,NA,null,Please press the <strong><u>a</u></strong> key to continue,null,response,a,0,FALSE,NA
NA,NA,NA,NA,NA,html-keyboard-response,32,123071,0.0-5.0-0.9,39,Study 39,Session 39,NA,null,"<div style=""font-size:60px;"">+</div>",null,fixation,NA,NA,NA,NA
NA,NA,NA,NA,NA,image-keyboard-response,33,129087,0.0-5.0-1.9,39,Study 39,Session 39,NA,null,img/encoding_events/Event_19.jpg,null,NA,NA,NA,NA,NA
NA,NA,NA,NA,NA,html-keyboard-response,34,129092,0.0-5.0-2.9,39,Study 39,Session 39,NA,null,Please press the <strong><u>j</u></strong> key to continue,null,response,j,0,FALSE,NA
NA,NA,NA,NA,NA,html-keyboard-response,35,129600,0.0-5.0-0.10,39,Study 39,Session 39,NA,null,"<div style=""font-size:60px;"">+</div>",null,fixation,NA,NA,NA,NA
NA,NA,NA,NA,NA,image-keyboard-response,36,135616,0.0-5.0-1.10,39,Study 39,Session 39,NA,null,img/encoding_events/Event_24.jpg,null,NA,NA,NA,NA,NA
NA,NA,NA,NA,NA,html-keyboard-response,37,135622,0.0-5.0-2.10,39,Study 39,Session 39,NA,null,Please press the <strong><u>d</u></strong> key to continue,null,response,d,0,FALSE,NA
NA,NA,NA,NA,NA,html-keyboard-response,38,136137,0.0-5.0-0.11,39,Study 39,Session 39,NA,null,"<div style=""font-size:60px;"">+</div>",null,fixation,NA,NA,NA,NA
NA,NA,NA,NA,NA,image-keyboard-response,39,142139,0.0-5.0-1.11,39,Study 39,Session 39,NA,null,img/encoding_events/Event_17.jpg,null,NA,NA,NA,NA,NA
NA,NA,NA,NA,NA,html-keyboard-response,40,143890,0.0-5.0-2.11,39,Study 39,Session 39,NA,1751,Please press the <strong><u>a</u></strong> key to continue,a,response,a,6000,TRUE,NA
NA,NA,NA,NA,NA,html-keyboard-response,41,144398,0.0-5.0-0.12,39,Study 39,Session 39,NA,null,"<div style=""font-size:60px;"">+</div>",null,fixation,NA,NA,NA,NA
NA,NA,NA,NA,NA,image-keyboard-response,42,150412,0.0-5.0-1.12,39,Study 39,Session 39,NA,null,img/encoding_events/Event_6.jpg,null,NA,NA,NA,NA,NA
NA,NA,NA,NA,NA,html-keyboard-response,43,150412,0.0-5.0-2.12,39,Study 39,Session 39,NA,null,Please press the <strong><u>a</u></strong> key to continue,null,response,a,0,FALSE,NA
NA,NA,NA,NA,NA,html-keyboard-response,44,150924,0.0-5.0-0.13,39,Study 39,Session 39,NA,null,"<div style=""font-size:60px;"">+</div>",null,fixation,NA,NA,NA,NA
NA,NA,NA,NA,NA,image-keyboard-response,45,156932,0.0-5.0-1.13,39,Study 39,Session 39,NA,null,img/encoding_events/Event_9.jpg,null,NA,NA,NA,NA,NA
NA,NA,NA,NA,NA,html-keyboard-response,46,156937,0.0-5.0-2.13,39,Study 39,Session 39,NA,null,Please press the <strong><u>a</u></strong> key to continue,null,response,a,0,FALSE,NA
NA,NA,NA,NA,NA,html-keyboard-response,47,157446,0.0-5.0-0.14,39,Study 39,Session 39,NA,null,"<div style=""font-size:60px;"">+</div>",null,fixation,NA,NA,NA,NA
NA,NA,NA,NA,NA,image-keyboard-response,48,163455,0.0-5.0-1.14,39,Study 39,Session 39,NA,null,img/encoding_events/Event_8.jpg,null,NA,NA,NA,NA,NA
NA,NA,NA,NA,NA,html-keyboard-response,49,163461,0.0-5.0-2.14,39,Study 39,Session 39,NA,null,Please press the <strong><u>k</u></strong> key to continue,null,response,k,0,FALSE,NA
NA,NA,NA,NA,NA,html-keyboard-response,50,163968,0.0-5.0-0.15,39,Study 39,Session 39,NA,null,"<div style=""font-size:60px;"">+</div>",null,fixation,NA,NA,NA,NA
NA,NA,NA,NA,NA,image-keyboard-response,51,169974,0.0-5.0-1.15,39,Study 39,Session 39,NA,null,img/encoding_events/Event_14.jpg,null,NA,NA,NA,NA,NA
NA,NA,NA,NA,NA,html-keyboard-response,52,171584,0.0-5.0-2.15,39,Study 39,Session 39,NA,1610,Please press the <strong><u>d</u></strong> key to continue,d,response,d,6000,TRUE,NA
NA,NA,NA,NA,NA,html-keyboard-response,53,172098,0.0-5.0-0.16,39,Study 39,Session 39,NA,null,"<div style=""font-size:60px;"">+</div>",null,fixation,NA,NA,NA,NA
NA,NA,NA,NA,NA,image-keyboard-response,54,178100,0.0-5.0-1.16,39,Study 39,Session 39,NA,null,img/encoding_events/Event_22.jpg,null,NA,NA,NA,NA,NA
NA,NA,NA,NA,NA,html-keyboard-response,55,178101,0.0-5.0-2.16,39,Study 39,Session 39,NA,null,Please press the <strong><u>k</u></strong> key to continue,null,response,k,0,FALSE,NA
NA,NA,NA,NA,NA,html-keyboard-response,56,178617,0.0-5.0-0.17,39,Study 39,Session 39,NA,null,"<div style=""font-size:60px;"">+</div>",null,fixation,NA,NA,NA,NA
NA,NA,NA,NA,NA,image-keyboard-response,57,184621,0.0-5.0-1.17,39,Study 39,Session 39,NA,null,img/encoding_events/Event_11.jpg,null,NA,NA,NA,NA,NA
NA,NA,NA,NA,NA,html-keyboard-response,58,184625,0.0-5.0-2.17,39,Study 39,Session 39,NA,null,Please press the <strong><u>f</u></strong> key to continue,null,response,f,0,FALSE,NA
NA,NA,NA,NA,NA,html-keyboard-response,59,185139,0.0-5.0-0.18,39,Study 39,Session 39,NA,null,"<div style=""font-size:60px;"">+</div>",null,fixation,NA,NA,NA,NA
NA,NA,NA,NA,NA,image-keyboard-response,60,191148,0.0-5.0-1.18,39,Study 39,Session 39,NA,null,img/encoding_events/Event_23.jpg,null,NA,NA,NA,NA,NA
NA,NA,NA,NA,NA,html-keyboard-response,61,191153,0.0-5.0-2.18,39,Study 39,Session 39,NA,null,Please press the <strong><u>j</u></strong> key to continue,null,response,j,0,FALSE,NA
NA,NA,NA,NA,NA,html-keyboard-response,62,191661,0.0-5.0-0.19,39,Study 39,Session 39,NA,null,"<div style=""font-size:60px;"">+</div>",null,fixation,NA,NA,NA,NA
NA,NA,NA,NA,NA,image-keyboard-response,63,197673,0.0-5.0-1.19,39,Study 39,Session 39,NA,null,img/encoding_events/Event_16.jpg,null,NA,NA,NA,NA,NA
NA,NA,NA,NA,NA,html-keyboard-response,64,199177,0.0-5.0-2.19,39,Study 39,Session 39,NA,1504,Please press the <strong><u>d</u></strong> key to continue,d,response,d,6000,TRUE,NA
NA,NA,NA,NA,NA,html-keyboard-response,65,199685,0.0-5.0-0.20,39,Study 39,Session 39,NA,null,"<div style=""font-size:60px;"">+</div>",null,fixation,NA,NA,NA,NA
NA,NA,NA,NA,NA,image-keyboard-response,66,205700,0.0-5.0-1.20,39,Study 39,Session 39,NA,null,img/encoding_events/Event_21.jpg,null,NA,NA,NA,NA,NA
NA,NA,NA,NA,NA,html-keyboard-response,67,205701,0.0-5.0-2.20,39,Study 39,Session 39,NA,null,Please press the <strong><u>d</u></strong> key to continue,null,response,d,0,FALSE,NA
NA,NA,NA,NA,NA,html-keyboard-response,68,206214,0.0-5.0-0.21,39,Study 39,Session 39,NA,null,"<div style=""font-size:60px;"">+</div>",null,fixation,NA,NA,NA,NA
NA,NA,NA,NA,NA,image-keyboard-response,69,212223,0.0-5.0-1.21,39,Study 39,Session 39,NA,null,img/encoding_events/Event_12.jpg,null,NA,NA,NA,NA,NA
NA,NA,NA,NA,NA,html-keyboard-response,70,212227,0.0-5.0-2.21,39,Study 39,Session 39,NA,null,Please press the <strong><u>f</u></strong> key to continue,null,response,f,0,FALSE,NA
NA,NA,NA,NA,NA,html-keyboard-response,71,212733,0.0-5.0-0.22,39,Study 39,Session 39,NA,null,"<div style=""font-size:60px;"">+</div>",null,fixation,NA,NA,NA,NA
NA,NA,NA,NA,NA,image-keyboard-response,72,218740,0.0-5.0-1.22,39,Study 39,Session 39,NA,null,img/encoding_events/Event_13.jpg,null,NA,NA,NA,NA,NA
NA,NA,NA,NA,NA,html-keyboard-response,73,218745,0.0-5.0-2.22,39,Study 39,Session 39,NA,null,Please press the <strong><u>s</u></strong> key to continue,null,response,s,0,FALSE,NA
NA,NA,NA,NA,NA,html-keyboard-response,74,219255,0.0-5.0-0.23,39,Study 39,Session 39,NA,null,"<div style=""font-size:60px;"">+</div>",null,fixation,NA,NA,NA,NA
NA,NA,NA,NA,NA,image-keyboard-response,75,225264,0.0-5.0-1.23,39,Study 39,Session 39,NA,null,img/encoding_events/Event_15.jpg,null,NA,NA,NA,NA,NA
NA,NA,NA,NA,NA,html-keyboard-response,76,231291,0.0-5.0-2.23,39,Study 39,Session 39,NA,null,Please press the <strong><u>a</u></strong> key to continue,null,response,a,6000,FALSE,NA
NA,NA,NA,NA,NA,instructions,77,300596,0.0-6.0,39,Study 39,Session 39,"[{""page_index"":0,""viewing_time"":2991},{""page_index"":1,""viewing_time"":36336},{""page_index"":2,""viewing_time"":7414},{""page_index"":3,""viewing_time"":7376},{""page_index"":4,""viewing_time"":5713},{""page_index"":5,""viewing_time"":1766},{""page_index"":6,""viewing_time"":7709}]",69305,NA,NA,NA,NA,NA,NA,NA
NA,NA,NA,NA,NA,image-keyboard-response,78,308732,0.0-7.0-0.0-0.0,39,Study 39,Session 39,NA,5621,img/testing_events/Cb/Test_Cb_Event_23.jpg,n,response,n,NA,TRUE,Cb
NA,NA,NA,NA,NA,image-keyboard-response,79,313857,0.0-7.0-0.0-0.1,39,Study 39,Session 39,NA,5124,img/testing_events/Cb/Test_Cb_Event_17.jpg,u,response,u,NA,TRUE,Cb
NA,NA,NA,NA,NA,image-keyboard-response,80,314972,0.0-7.0-0.0-0.2,39,Study 39,Session 39,NA,1115,img/testing_events/Cb/Test_Cb_Event_16.jpg,e,response,e,NA,TRUE,Cb
NA,NA,NA,NA,NA,image-keyboard-response,81,316418,0.0-7.0-0.0-0.3,39,Study 39,Session 39,NA,1446,img/testing_events/Cb/Test_Cb_Event_21.jpg,u,response,u,NA,TRUE,Cb
NA,NA,NA,NA,NA,image-keyboard-response,82,318990,0.0-7.0-0.0-0.4,39,Study 39,Session 39,NA,2572,img/testing_events/Cb/Test_Cb_Event_15.jpg,c,response,n,NA,FALSE,Cb
NA,NA,NA,NA,NA,image-keyboard-response,83,320433,0.0-7.0-0.0-0.5,39,Study 39,Session 39,NA,1442,img/testing_events/Cb/Test_Cb_Event_12.jpg,e,response,e,NA,TRUE,Cb
NA,NA,NA,NA,NA,image-keyboard-response,84,324360,0.0-7.0-0.0-0.6,39,Study 39,Session 39,NA,3927,img/testing_events/Cb/Test_Cb_Event_7.jpg,u,response,n,NA,FALSE,Cb
NA,NA,NA,NA,NA,image-keyboard-response,85,328240,0.0-7.0-0.0-0.7,39,Study 39,Session 39,NA,3880,img/testing_events/Cb/Test_Cb_Event_9.jpg,u,response,u,NA,TRUE,Cb
NA,NA,NA,NA,NA,image-keyboard-response,86,329768,0.0-7.0-0.0-0.8,39,Study 39,Session 39,NA,1527,img/testing_events/Cb/Test_Cb_Event_20.jpg,e,response,e,NA,TRUE,Cb
NA,NA,NA,NA,NA,image-keyboard-response,87,331998,0.0-7.0-0.0-0.9,39,Study 39,Session 39,NA,2230,img/testing_events/Cb/Test_Cb_Event_2.jpg,c,response,c,NA,TRUE,Cb
NA,NA,NA,NA,NA,image-keyboard-response,88,333272,0.0-7.0-0.0-0.10,39,Study 39,Session 39,NA,1274,img/testing_events/Cb/Test_Cb_Event_3.jpg,n,response,n,NA,TRUE,Cb
NA,NA,NA,NA,NA,image-keyboard-response,89,336332,0.0-7.0-0.0-0.11,39,Study 39,Session 39,NA,3060,img/testing_events/Cb/Test_Cb_Event_6.jpg,c,response,c,NA,TRUE,Cb
NA,NA,NA,NA,NA,image-keyboard-response,90,337998,0.0-7.0-0.0-0.12,39,Study 39,Session 39,NA,1666,img/testing_events/Cb/Test_Cb_Event_1.jpg,n,response,u,NA,FALSE,Cb
NA,NA,NA,NA,NA,image-keyboard-response,91,339730,0.0-7.0-0.0-0.13,39,Study 39,Session 39,NA,1732,img/testing_events/Cb/Test_Cb_Event_14.jpg,c,response,c,NA,TRUE,Cb
NA,NA,NA,NA,NA,image-keyboard-response,92,341160,0.0-7.0-0.0-0.14,39,Study 39,Session 39,NA,1430,img/testing_events/Cb/Test_Cb_Event_22.jpg,n,response,c,NA,FALSE,Cb
NA,NA,NA,NA,NA,image-keyboard-response,93,343482,0.0-7.0-0.0-0.15,39,Study 39,Session 39,NA,2322,img/testing_events/Cb/Test_Cb_Event_19.jpg,u,response,n,NA,FALSE,Cb
NA,NA,NA,NA,NA,image-keyboard-response,94,345716,0.0-7.0-0.0-0.16,39,Study 39,Session 39,NA,2234,img/testing_events/Cb/Test_Cb_Event_18.jpg,e,response,c,NA,FALSE,Cb
NA,NA,NA,NA,NA,image-keyboard-response,95,348593,0.0-7.0-0.0-0.17,39,Study 39,Session 39,NA,2876,img/testing_events/Cb/Test_Cb_Event_5.jpg,c,response,u,NA,FALSE,Cb
NA,NA,NA,NA,NA,image-keyboard-response,96,351142,0.0-7.0-0.0-0.18,39,Study 39,Session 39,NA,2549,img/testing_events/Cb/Test_Cb_Event_8.jpg,u,response,e,NA,FALSE,Cb
NA,NA,NA,NA,NA,image-keyboard-response,97,353392,0.0-7.0-0.0-0.19,39,Study 39,Session 39,NA,2250,img/testing_events/Cb/Test_Cb_Event_11.jpg,n,response,n,NA,TRUE,Cb
NA,NA,NA,NA,NA,image-keyboard-response,98,356319,0.0-7.0-0.0-0.20,39,Study 39,Session 39,NA,2926,img/testing_events/Cb/Test_Cb_Event_13.jpg,e,response,u,NA,FALSE,Cb
NA,NA,NA,NA,NA,image-keyboard-response,99,358572,0.0-7.0-0.0-0.21,39,Study 39,Session 39,NA,2253,img/testing_events/Cb/Test_Cb_Event_4.jpg,e,response,e,NA,TRUE,Cb
NA,NA,NA,NA,NA,image-keyboard-response,100,363978,0.0-7.0-0.0-0.22,39,Study 39,Session 39,NA,5406,img/testing_events/Cb/Test_Cb_Event_10.jpg,u,response,c,NA,FALSE,Cb
NA,NA,NA,NA,NA,image-keyboard-response,101,366586,0.0-7.0-0.0-0.23,39,Study 39,Session 39,NA,2607,img/testing_events/Cb/Test_Cb_Event_24.jpg,e,response,e,NA,TRUE,Cb
NA,NA,NA,NA,NA,image-keyboard-response,102,369880,0.0-7.0-1.0-0.0,39,Study 39,Session 39,NA,3294,img/testing_events/Ba/Test_Ba_Event_2.jpg,n,response,n,NA,TRUE,Ba
NA,NA,NA,NA,NA,image-keyboard-response,103,375434,0.0-7.0-1.0-0.1,39,Study 39,Session 39,NA,5554,img/testing_events/Ba/Test_Ba_Event_10.jpg,e,response,n,NA,FALSE,Ba
NA,NA,NA,NA,NA,image-keyboard-response,104,381110,0.0-7.0-1.0-0.2,39,Study 39,Session 39,NA,5675,img/testing_events/Ba/Test_Ba_Event_24.jpg,u,response,u,NA,TRUE,Ba
NA,NA,NA,NA,NA,image-keyboard-response,105,383714,0.0-7.0-1.0-0.3,39,Study 39,Session 39,NA,2604,img/testing_events/Ba/Test_Ba_Event_23.jpg,e,response,e,NA,TRUE,Ba
NA,NA,NA,NA,NA,image-keyboard-response,106,387886,0.0-7.0-1.0-0.4,39,Study 39,Session 39,NA,4171,img/testing_events/Ba/Test_Ba_Event_7.jpg,e,response,e,NA,TRUE,Ba
NA,NA,NA,NA,NA,image-keyboard-response,107,392218,0.0-7.0-1.0-0.5,39,Study 39,Session 39,NA,4331,img/testing_events/Ba/Test_Ba_Event_6.jpg,n,response,n,NA,TRUE,Ba
NA,NA,NA,NA,NA,image-keyboard-response,108,394250,0.0-7.0-1.0-0.6,39,Study 39,Session 39,NA,2032,img/testing_events/Ba/Test_Ba_Event_14.jpg,n,response,n,NA,TRUE,Ba
NA,NA,NA,NA,NA,image-keyboard-response,109,396830,0.0-7.0-1.0-0.7,39,Study 39,Session 39,NA,2580,img/testing_events/Ba/Test_Ba_Event_1.jpg,n,response,c,NA,FALSE,Ba
NA,NA,NA,NA,NA,image-keyboard-response,110,401154,0.0-7.0-1.0-0.8,39,Study 39,Session 39,NA,4324,img/testing_events/Ba/Test_Ba_Event_9.jpg,e,response,c,NA,FALSE,Ba
NA,NA,NA,NA,NA,image-keyboard-response,111,402306,0.0-7.0-1.0-0.9,39,Study 39,Session 39,NA,1151,img/testing_events/Ba/Test_Ba_Event_20.jpg,u,response,u,NA,TRUE,Ba
NA,NA,NA,NA,NA,image-keyboard-response,112,411325,0.0-7.0-1.0-0.10,39,Study 39,Session 39,NA,9018,img/testing_events/Ba/Test_Ba_Event_11.jpg,n,response,e,NA,FALSE,Ba
NA,NA,NA,NA,NA,image-keyboard-response,113,414782,0.0-7.0-1.0-0.11,39,Study 39,Session 39,NA,3457,img/testing_events/Ba/Test_Ba_Event_5.jpg,n,response,c,NA,FALSE,Ba
NA,NA,NA,NA,NA,image-keyboard-response,114,418300,0.0-7.0-1.0-0.12,39,Study 39,Session 39,NA,3518,img/testing_events/Ba/Test_Ba_Event_12.jpg,n,response,u,NA,FALSE,Ba
NA,NA,NA,NA,NA,image-keyboard-response,115,419264,0.0-7.0-1.0-0.13,39,Study 39,Session 39,NA,963,img/testing_events/Ba/Test_Ba_Event_3.jpg,e,response,e,NA,TRUE,Ba
NA,NA,NA,NA,NA,image-keyboard-response,116,420302,0.0-7.0-1.0-0.14,39,Study 39,Session 39,NA,1038,img/testing_events/Ba/Test_Ba_Event_16.jpg,u,response,u,NA,TRUE,Ba
NA,NA,NA,NA,NA,image-keyboard-response,117,423468,0.0-7.0-1.0-0.15,39,Study 39,Session 39,NA,3166,img/testing_events/Ba/Test_Ba_Event_4.jpg,u,response,u,NA,TRUE,Ba
NA,NA,NA,NA,NA,image-keyboard-response,118,424692,0.0-7.0-1.0-0.16,39,Study 39,Session 39,NA,1223,img/testing_events/Ba/Test_Ba_Event_8.jpg,u,response,u,NA,TRUE,Ba
NA,NA,NA,NA,NA,image-keyboard-response,119,427928,0.0-7.0-1.0-0.17,39,Study 39,Session 39,NA,3236,img/testing_events/Ba/Test_Ba_Event_18.jpg,u,response,n,NA,FALSE,Ba
NA,NA,NA,NA,NA,image-keyboard-response,120,430678,0.0-7.0-1.0-0.18,39,Study 39,Session 39,NA,2750,img/testing_events/Ba/Test_Ba_Event_13.jpg,c,response,c,NA,TRUE,Ba
NA,NA,NA,NA,NA,image-keyboard-response,121,432776,0.0-7.0-1.0-0.19,39,Study 39,Session 39,NA,2098,img/testing_events/Ba/Test_Ba_Event_22.jpg,e,response,n,NA,FALSE,Ba
NA,NA,NA,NA,NA,image-keyboard-response,122,433668,0.0-7.0-1.0-0.20,39,Study 39,Session 39,NA,892,img/testing_events/Ba/Test_Ba_Event_15.jpg,e,response,e,NA,TRUE,Ba
NA,NA,NA,NA,NA,image-keyboard-response,123,434540,0.0-7.0-1.0-0.21,39,Study 39,Session 39,NA,871,img/testing_events/Ba/Test_Ba_Event_19.jpg,e,response,e,NA,TRUE,Ba
NA,NA,NA,NA,NA,image-keyboard-response,124,435930,0.0-7.0-1.0-0.22,39,Study 39,Session 39,NA,1390,img/testing_events/Ba/Test_Ba_Event_21.jpg,c,response,c,NA,TRUE,Ba
NA,NA,NA,NA,NA,image-keyboard-response,125,439902,0.0-7.0-1.0-0.23,39,Study 39,Session 39,NA,3971,img/testing_events/Ba/Test_Ba_Event_17.jpg,c,response,c,NA,TRUE,Ba
NA,NA,NA,NA,NA,image-keyboard-response,126,443308,0.0-7.0-2.0-0.0,39,Study 39,Session 39,NA,3406,img/testing_events/Bc/Test_Bc_Event_22.jpg,n,response,e,NA,FALSE,Bc
NA,NA,NA,NA,NA,image-keyboard-response,127,447072,0.0-7.0-2.0-0.1,39,Study 39,Session 39,NA,3764,img/testing_events/Bc/Test_Bc_Event_10.jpg,e,response,e,NA,TRUE,Bc
NA,NA,NA,NA,NA,image-keyboard-response,128,449010,0.0-7.0-2.0-0.2,39,Study 39,Session 39,NA,1937,img/testing_events/Bc/Test_Bc_Event_16.jpg,c,response,c,NA,TRUE,Bc
NA,NA,NA,NA,NA,image-keyboard-response,129,451802,0.0-7.0-2.0-0.3,39,Study 39,Session 39,NA,2792,img/testing_events/Bc/Test_Bc_Event_1.jpg,c,response,n,NA,FALSE,Bc
NA,NA,NA,NA,NA,image-keyboard-response,130,455180,0.0-7.0-2.0-0.4,39,Study 39,Session 39,NA,3377,img/testing_events/Bc/Test_Bc_Event_15.jpg,c,response,u,NA,FALSE,Bc
NA,NA,NA,NA,NA,image-keyboard-response,131,458252,0.0-7.0-2.0-0.5,39,Study 39,Session 39,NA,3072,img/testing_events/Bc/Test_Bc_Event_24.jpg,c,response,c,NA,TRUE,Bc
NA,NA,NA,NA,NA,image-keyboard-response,132,460420,0.0-7.0-2.0-0.6,39,Study 39,Session 39,NA,2167,img/testing_events/Bc/Test_Bc_Event_4.jpg,n,response,c,NA,FALSE,Bc
NA,NA,NA,NA,NA,image-keyboard-response,133,464724,0.0-7.0-2.0-0.7,39,Study 39,Session 39,NA,4304,img/testing_events/Bc/Test_Bc_Event_18.jpg,e,response,e,NA,TRUE,Bc
NA,NA,NA,NA,NA,image-keyboard-response,134,467526,0.0-7.0-2.0-0.8,39,Study 39,Session 39,NA,2802,img/testing_events/Bc/Test_Bc_Event_3.jpg,u,response,u,NA,TRUE,Bc
NA,NA,NA,NA,NA,image-keyboard-response,135,469742,0.0-7.0-2.0-0.9,39,Study 39,Session 39,NA,2216,img/testing_events/Bc/Test_Bc_Event_5.jpg,e,response,n,NA,FALSE,Bc
NA,NA,NA,NA,NA,image-keyboard-response,136,473514,0.0-7.0-2.0-0.10,39,Study 39,Session 39,NA,3771,img/testing_events/Bc/Test_Bc_Event_14.jpg,e,response,e,NA,TRUE,Bc
NA,NA,NA,NA,NA,image-keyboard-response,137,475948,0.0-7.0-2.0-0.11,39,Study 39,Session 39,NA,2434,img/testing_events/Bc/Test_Bc_Event_13.jpg,u,response,n,NA,FALSE,Bc
NA,NA,NA,NA,NA,image-keyboard-response,138,479292,0.0-7.0-2.0-0.12,39,Study 39,Session 39,NA,3344,img/testing_events/Bc/Test_Bc_Event_12.jpg,c,response,c,NA,TRUE,Bc
NA,NA,NA,NA,NA,image-keyboard-response,139,480460,0.0-7.0-2.0-0.13,39,Study 39,Session 39,NA,1168,img/testing_events/Bc/Test_Bc_Event_2.jpg,e,response,e,NA,TRUE,Bc
NA,NA,NA,NA,NA,image-keyboard-response,140,482270,0.0-7.0-2.0-0.14,39,Study 39,Session 39,NA,1810,img/testing_events/Bc/Test_Bc_Event_7.jpg,n,response,u,NA,FALSE,Bc
NA,NA,NA,NA,NA,image-keyboard-response,141,484580,0.0-7.0-2.0-0.15,39,Study 39,Session 39,NA,2310,img/testing_events/Bc/Test_Bc_Event_23.jpg,u,response,u,NA,TRUE,Bc
NA,NA,NA,NA,NA,image-keyboard-response,142,487276,0.0-7.0-2.0-0.16,39,Study 39,Session 39,NA,2696,img/testing_events/Bc/Test_Bc_Event_6.jpg,n,response,e,NA,FALSE,Bc
NA,NA,NA,NA,NA,image-keyboard-response,143,490318,0.0-7.0-2.0-0.17,39,Study 39,Session 39,NA,3042,img/testing_events/Bc/Test_Bc_Event_8.jpg,u,response,c,NA,FALSE,Bc
NA,NA,NA,NA,NA,image-keyboard-response,144,491862,0.0-7.0-2.0-0.18,39,Study 39,Session 39,NA,1544,img/testing_events/Bc/Test_Bc_Event_21.jpg,e,response,n,NA,FALSE,Bc
NA,NA,NA,NA,NA,image-keyboard-response,145,494570,0.0-7.0-2.0-0.19,39,Study 39,Session 39,NA,2707,img/testing_events/Bc/Test_Bc_Event_20.jpg,n,response,c,NA,FALSE,Bc
NA,NA,NA,NA,NA,image-keyboard-response,146,497114,0.0-7.0-2.0-0.20,39,Study 39,Session 39,NA,2544,img/testing_events/Bc/Test_Bc_Event_19.jpg,n,response,u,NA,FALSE,Bc
NA,NA,NA,NA,NA,image-keyboard-response,147,498844,0.0-7.0-2.0-0.21,39,Study 39,Session 39,NA,1730,img/testing_events/Bc/Test_Bc_Event_11.jpg,n,response,u,NA,FALSE,Bc
NA,NA,NA,NA,NA,image-keyboard-response,148,501990,0.0-7.0-2.0-0.22,39,Study 39,Session 39,NA,3146,img/testing_events/Bc/Test_Bc_Event_17.jpg,n,response,n,NA,TRUE,Bc
NA,NA,NA,NA,NA,image-keyboard-response,149,504360,0.0-7.0-2.0-0.23,39,Study 39,Session 39,NA,2370,img/testing_events/Bc/Test_Bc_Event_9.jpg,e,response,n,NA,FALSE,Bc
NA,NA,NA,NA,NA,image-keyboard-response,150,508562,0.0-7.0-3.0-0.0,39,Study 39,Session 39,NA,4201,img/testing_events/Ca/Test_Ca_Event_23.jpg,c,response,c,NA,TRUE,Ca
NA,NA,NA,NA,NA,image-keyboard-response,151,510364,0.0-7.0-3.0-0.1,39,Study 39,Session 39,NA,1802,img/testing_events/Ca/Test_Ca_Event_20.jpg,n,response,n,NA,TRUE,Ca
NA,NA,NA,NA,NA,image-keyboard-response,152,514628,0.0-7.0-3.0-0.2,39,Study 39,Session 39,NA,4264,img/testing_events/Ca/Test_Ca_Event_15.jpg,e,response,c,NA,FALSE,Ca
NA,NA,NA,NA,NA,image-keyboard-response,153,517508,0.0-7.0-3.0-0.3,39,Study 39,Session 39,NA,2879,img/testing_events/Ca/Test_Ca_Event_9.jpg,n,response,e,NA,FALSE,Ca
NA,NA,NA,NA,NA,image-keyboard-response,154,520532,0.0-7.0-3.0-0.4,39,Study 39,Session 39,NA,3024,img/testing_events/Ca/Test_Ca_Event_19.jpg,u,response,c,NA,FALSE,Ca
NA,NA,NA,NA,NA,image-keyboard-response,155,522910,0.0-7.0-3.0-0.5,39,Study 39,Session 39,NA,2378,img/testing_events/Ca/Test_Ca_Event_5.jpg,c,response,e,NA,FALSE,Ca
NA,NA,NA,NA,NA,image-keyboard-response,156,524094,0.0-7.0-3.0-0.6,39,Study 39,Session 39,NA,1183,img/testing_events/Ca/Test_Ca_Event_16.jpg,n,response,n,NA,TRUE,Ca
NA,NA,NA,NA,NA,image-keyboard-response,157,528674,0.0-7.0-3.0-0.7,39,Study 39,Session 39,NA,4580,img/testing_events/Ca/Test_Ca_Event_7.jpg,e,response,c,NA,FALSE,Ca
NA,NA,NA,NA,NA,image-keyboard-response,158,532352,0.0-7.0-3.0-0.8,39,Study 39,Session 39,NA,3677,img/testing_events/Ca/Test_Ca_Event_17.jpg,u,response,e,NA,FALSE,Ca
NA,NA,NA,NA,NA,image-keyboard-response,159,534874,0.0-7.0-3.0-0.9,39,Study 39,Session 39,NA,2521,img/testing_events/Ca/Test_Ca_Event_24.jpg,e,response,n,NA,FALSE,Ca
NA,NA,NA,NA,NA,image-keyboard-response,160,536272,0.0-7.0-3.0-0.10,39,Study 39,Session 39,NA,1398,img/testing_events/Ca/Test_Ca_Event_3.jpg,c,response,c,NA,TRUE,Ca
NA,NA,NA,NA,NA,image-keyboard-response,161,538434,0.0-7.0-3.0-0.11,39,Study 39,Session 39,NA,2162,img/testing_events/Ca/Test_Ca_Event_8.jpg,c,response,n,NA,FALSE,Ca
NA,NA,NA,NA,NA,image-keyboard-response,162,540000,0.0-7.0-3.0-0.12,39,Study 39,Session 39,NA,1566,img/testing_events/Ca/Test_Ca_Event_14.jpg,u,response,u,NA,TRUE,Ca
NA,NA,NA,NA,NA,image-keyboard-response,163,542990,0.0-7.0-3.0-0.13,39,Study 39,Session 39,NA,2989,img/testing_events/Ca/Test_Ca_Event_2.jpg,u,response,u,NA,TRUE,Ca
NA,NA,NA,NA,NA,image-keyboard-response,164,545102,0.0-7.0-3.0-0.14,39,Study 39,Session 39,NA,2112,img/testing_events/Ca/Test_Ca_Event_11.jpg,e,response,c,NA,FALSE,Ca
NA,NA,NA,NA,NA,image-keyboard-response,165,546902,0.0-7.0-3.0-0.15,39,Study 39,Session 39,NA,1799,img/testing_events/Ca/Test_Ca_Event_6.jpg,e,response,u,NA,FALSE,Ca
NA,NA,NA,NA,NA,image-keyboard-response,166,549650,0.0-7.0-3.0-0.16,39,Study 39,Session 39,NA,2747,img/testing_events/Ca/Test_Ca_Event_1.jpg,n,response,e,NA,FALSE,Ca
NA,NA,NA,NA,NA,image-keyboard-response,167,551354,0.0-7.0-3.0-0.17,39,Study 39,Session 39,NA,1704,img/testing_events/Ca/Test_Ca_Event_12.jpg,n,response,n,NA,TRUE,Ca
NA,NA,NA,NA,NA,image-keyboard-response,168,554894,0.0-7.0-3.0-0.18,39,Study 39,Session 39,NA,3540,img/testing_events/Ca/Test_Ca_Event_21.jpg,e,response,e,NA,TRUE,Ca
NA,NA,NA,NA,NA,image-keyboard-response,169,556928,0.0-7.0-3.0-0.19,39,Study 39,Session 39,NA,2033,img/testing_events/Ca/Test_Ca_Event_13.jpg,e,response,e,NA,TRUE,Ca
NA,NA,NA,NA,NA,image-keyboard-response,170,558204,0.0-7.0-3.0-0.20,39,Study 39,Session 39,NA,1276,img/testing_events/Ca/Test_Ca_Event_18.jpg,c,response,u,NA,FALSE,Ca
NA,NA,NA,NA,NA,image-keyboard-response,171,561234,0.0-7.0-3.0-0.21,39,Study 39,Session 39,NA,3030,img/testing_events/Ca/Test_Ca_Event_22.jpg,e,response,u,NA,FALSE,Ca
NA,NA,NA,NA,NA,image-keyboard-response,172,563074,0.0-7.0-3.0-0.22,39,Study 39,Session 39,NA,1840,img/testing_events/Ca/Test_Ca_Event_4.jpg,e,response,n,NA,FALSE,Ca
NA,NA,NA,NA,NA,image-keyboard-response,173,565560,0.0-7.0-3.0-0.23,39,Study 39,Session 39,NA,2485,img/testing_events/Ca/Test_Ca_Event_10.jpg,n,response,u,NA,FALSE,Ca
NA,NA,NA,NA,NA,image-keyboard-response,174,567664,0.0-7.0-4.0-0.0,39,Study 39,Session 39,NA,2104,img/testing_events/Ab/Test_Ab_Event_13.jpg,e,response,e,NA,TRUE,Ab
NA,NA,NA,NA,NA,image-keyboard-response,175,569098,0.0-7.0-4.0-0.1,39,Study 39,Session 39,NA,1433,img/testing_events/Ab/Test_Ab_Event_8.jpg,n,response,n,NA,TRUE,Ab
NA,NA,NA,NA,NA,image-keyboard-response,176,571010,0.0-7.0-4.0-0.2,39,Study 39,Session 39,NA,1912,img/testing_events/Ab/Test_Ab_Event_6.jpg,u,response,u,NA,TRUE,Ab
NA,NA,NA,NA,NA,image-keyboard-response,177,571988,0.0-7.0-4.0-0.3,39,Study 39,Session 39,NA,978,img/testing_events/Ab/Test_Ab_Event_23.jpg,c,response,c,NA,TRUE,Ab
NA,NA,NA,NA,NA,image-keyboard-response,178,572784,0.0-7.0-4.0-0.4,39,Study 39,Session 39,NA,796,img/testing_events/Ab/Test_Ab_Event_19.jpg,c,response,c,NA,TRUE,Ab
NA,NA,NA,NA,NA,image-keyboard-response,179,576042,0.0-7.0-4.0-0.5,39,Study 39,Session 39,NA,3258,img/testing_events/Ab/Test_Ab_Event_4.jpg,n,response,n,NA,TRUE,Ab
NA,NA,NA,NA,NA,image-keyboard-response,180,577218,0.0-7.0-4.0-0.6,39,Study 39,Session 39,NA,1175,img/testing_events/Ab/Test_Ab_Event_3.jpg,c,response,c,NA,TRUE,Ab
NA,NA,NA,NA,NA,image-keyboard-response,181,578598,0.0-7.0-4.0-0.7,39,Study 39,Session 39,NA,1380,img/testing_events/Ab/Test_Ab_Event_18.jpg,u,response,u,NA,TRUE,Ab
NA,NA,NA,NA,NA,image-keyboard-response,182,579722,0.0-7.0-4.0-0.8,39,Study 39,Session 39,NA,1124,img/testing_events/Ab/Test_Ab_Event_17.jpg,e,response,e,NA,TRUE,Ab
NA,NA,NA,NA,NA,image-keyboard-response,183,580814,0.0-7.0-4.0-0.9,39,Study 39,Session 39,NA,1092,img/testing_events/Ab/Test_Ab_Event_10.jpg,e,response,u,NA,FALSE,Ab
NA,NA,NA,NA,NA,image-keyboard-response,184,581948,0.0-7.0-4.0-0.10,39,Study 39,Session 39,NA,1134,img/testing_events/Ab/Test_Ab_Event_21.jpg,e,response,e,NA,TRUE,Ab
NA,NA,NA,NA,NA,image-keyboard-response,185,582976,0.0-7.0-4.0-0.11,39,Study 39,Session 39,NA,1027,img/testing_events/Ab/Test_Ab_Event_15.jpg,c,response,c,NA,TRUE,Ab
NA,NA,NA,NA,NA,image-keyboard-response,186,584194,0.0-7.0-4.0-0.12,39,Study 39,Session 39,NA,1218,img/testing_events/Ab/Test_Ab_Event_2.jpg,u,response,u,NA,TRUE,Ab
NA,NA,NA,NA,NA,image-keyboard-response,187,588060,0.0-7.0-4.0-0.13,39,Study 39,Session 39,NA,3866,img/testing_events/Ab/Test_Ab_Event_9.jpg,u,response,e,NA,FALSE,Ab
NA,NA,NA,NA,NA,image-keyboard-response,188,590310,0.0-7.0-4.0-0.14,39,Study 39,Session 39,NA,2249,img/testing_events/Ab/Test_Ab_Event_22.jpg,u,response,u,NA,TRUE,Ab
NA,NA,NA,NA,NA,image-keyboard-response,189,592142,0.0-7.0-4.0-0.15,39,Study 39,Session 39,NA,1832,img/testing_events/Ab/Test_Ab_Event_1.jpg,e,response,e,NA,TRUE,Ab
NA,NA,NA,NA,NA,image-keyboard-response,190,593204,0.0-7.0-4.0-0.16,39,Study 39,Session 39,NA,1061,img/testing_events/Ab/Test_Ab_Event_20.jpg,n,response,n,NA,TRUE,Ab
NA,NA,NA,NA,NA,image-keyboard-response,191,595264,0.0-7.0-4.0-0.17,39,Study 39,Session 39,NA,2060,img/testing_events/Ab/Test_Ab_Event_12.jpg,e,response,n,NA,FALSE,Ab
NA,NA,NA,NA,NA,image-keyboard-response,192,596430,0.0-7.0-4.0-0.18,39,Study 39,Session 39,NA,1166,img/testing_events/Ab/Test_Ab_Event_16.jpg,n,response,n,NA,TRUE,Ab
NA,NA,NA,NA,NA,image-keyboard-response,193,597828,0.0-7.0-4.0-0.19,39,Study 39,Session 39,NA,1398,img/testing_events/Ab/Test_Ab_Event_7.jpg,e,response,c,NA,FALSE,Ab
NA,NA,NA,NA,NA,image-keyboard-response,194,599888,0.0-7.0-4.0-0.20,39,Study 39,Session 39,NA,2059,img/testing_events/Ab/Test_Ab_Event_5.jpg,u,response,e,NA,FALSE,Ab
NA,NA,NA,NA,NA,image-keyboard-response,195,601004,0.0-7.0-4.0-0.21,39,Study 39,Session 39,NA,1115,img/testing_events/Ab/Test_Ab_Event_14.jpg,u,response,u,NA,TRUE,Ab
NA,NA,NA,NA,NA,image-keyboard-response,196,605292,0.0-7.0-4.0-0.22,39,Study 39,Session 39,NA,4288,img/testing_events/Ab/Test_Ab_Event_24.jpg,n,response,n,NA,TRUE,Ab
NA,NA,NA,NA,NA,image-keyboard-response,197,607844,0.0-7.0-4.0-0.23,39,Study 39,Session 39,NA,2551,img/testing_events/Ab/Test_Ab_Event_11.jpg,n,response,c,NA,FALSE,Ab
NA,NA,NA,NA,NA,image-keyboard-response,198,610414,0.0-7.0-5.0-0.0,39,Study 39,Session 39,NA,2570,img/testing_events/Ac/Test_Ac_Event_8.jpg,e,response,e,NA,TRUE,Ac
NA,NA,NA,NA,NA,image-keyboard-response,199,612709,0.0-7.0-5.0-0.1,39,Study 39,Session 39,NA,2295,img/testing_events/Ac/Test_Ac_Event_11.jpg,u,response,n,NA,FALSE,Ac
NA,NA,NA,NA,NA,image-keyboard-response,200,615236,0.0-7.0-5.0-0.2,39,Study 39,Session 39,NA,2526,img/testing_events/Ac/Test_Ac_Event_9.jpg,c,response,u,NA,FALSE,Ac
NA,NA,NA,NA,NA,image-keyboard-response,201,616748,0.0-7.0-5.0-0.3,39,Study 39,Session 39,NA,1512,img/testing_events/Ac/Test_Ac_Event_21.jpg,u,response,u,NA,TRUE,Ac
NA,NA,NA,NA,NA,image-keyboard-response,202,618912,0.0-7.0-5.0-0.4,39,Study 39,Session 39,NA,2164,img/testing_events/Ac/Test_Ac_Event_19.jpg,e,response,n,NA,FALSE,Ac
NA,NA,NA,NA,NA,image-keyboard-response,203,621160,0.0-7.0-5.0-0.5,39,Study 39,Session 39,NA,2248,img/testing_events/Ac/Test_Ac_Event_22.jpg,n,response,c,NA,FALSE,Ac
NA,NA,NA,NA,NA,image-keyboard-response,204,623551,0.0-7.0-5.0-0.6,39,Study 39,Session 39,NA,2391,img/testing_events/Ac/Test_Ac_Event_1.jpg,n,response,u,NA,FALSE,Ac
NA,NA,NA,NA,NA,image-keyboard-response,205,626415,0.0-7.0-5.0-0.7,39,Study 39,Session 39,NA,2864,img/testing_events/Ac/Test_Ac_Event_20.jpg,e,response,e,NA,TRUE,Ac
NA,NA,NA,NA,NA,image-keyboard-response,206,629695,0.0-7.0-5.0-0.8,39,Study 39,Session 39,NA,3280,img/testing_events/Ac/Test_Ac_Event_13.jpg,c,response,u,NA,FALSE,Ac
NA,NA,NA,NA,NA,image-keyboard-response,207,631115,0.0-7.0-5.0-0.9,39,Study 39,Session 39,NA,1420,img/testing_events/Ac/Test_Ac_Event_3.jpg,n,response,n,NA,TRUE,Ac
NA,NA,NA,NA,NA,image-keyboard-response,208,633080,0.0-7.0-5.0-0.10,39,Study 39,Session 39,NA,1964,img/testing_events/Ac/Test_Ac_Event_7.jpg,c,response,n,NA,FALSE,Ac
NA,NA,NA,NA,NA,image-keyboard-response,209,635796,0.0-7.0-5.0-0.11,39,Study 39,Session 39,NA,2715,img/testing_events/Ac/Test_Ac_Event_4.jpg,e,response,e,NA,TRUE,Ac
NA,NA,NA,NA,NA,image-keyboard-response,210,638469,0.0-7.0-5.0-0.12,39,Study 39,Session 39,NA,2674,img/testing_events/Ac/Test_Ac_Event_24.jpg,n,response,e,NA,FALSE,Ac
NA,NA,NA,NA,NA,image-keyboard-response,211,640407,0.0-7.0-5.0-0.13,39,Study 39,Session 39,NA,1938,img/testing_events/Ac/Test_Ac_Event_12.jpg,n,response,e,NA,FALSE,Ac
NA,NA,NA,NA,NA,image-keyboard-response,212,642528,0.0-7.0-5.0-0.14,39,Study 39,Session 39,NA,2120,img/testing_events/Ac/Test_Ac_Event_17.jpg,u,response,u,NA,TRUE,Ac
NA,NA,NA,NA,NA,image-keyboard-response,213,644672,0.0-7.0-5.0-0.15,39,Study 39,Session 39,NA,2144,img/testing_events/Ac/Test_Ac_Event_15.jpg,e,response,n,NA,FALSE,Ac
NA,NA,NA,NA,NA,image-keyboard-response,214,645865,0.0-7.0-5.0-0.16,39,Study 39,Session 39,NA,1193,img/testing_events/Ac/Test_Ac_Event_14.jpg,c,response,c,NA,TRUE,Ac
NA,NA,NA,NA,NA,image-keyboard-response,215,647964,0.0-7.0-5.0-0.17,39,Study 39,Session 39,NA,2098,img/testing_events/Ac/Test_Ac_Event_6.jpg,n,response,c,NA,FALSE,Ac
NA,NA,NA,NA,NA,image-keyboard-response,216,649032,0.0-7.0-5.0-0.18,39,Study 39,Session 39,NA,1067,img/testing_events/Ac/Test_Ac_Event_2.jpg,c,response,c,NA,TRUE,Ac
NA,NA,NA,NA,NA,image-keyboard-response,217,650111,0.0-7.0-5.0-0.19,39,Study 39,Session 39,NA,1080,img/testing_events/Ac/Test_Ac_Event_16.jpg,e,response,e,NA,TRUE,Ac
NA,NA,NA,NA,NA,image-keyboard-response,218,651912,0.0-7.0-5.0-0.20,39,Study 39,Session 39,NA,1800,img/testing_events/Ac/Test_Ac_Event_5.jpg,u,response,u,NA,TRUE,Ac
NA,NA,NA,NA,NA,image-keyboard-response,219,653502,0.0-7.0-5.0-0.21,39,Study 39,Session 39,NA,1590,img/testing_events/Ac/Test_Ac_Event_23.jpg,n,response,n,NA,TRUE,Ac
NA,NA,NA,NA,NA,image-keyboard-response,220,656202,0.0-7.0-5.0-0.22,39,Study 39,Session 39,NA,2700,img/testing_events/Ac/Test_Ac_Event_10.jpg,c,response,c,NA,TRUE,Ac
NA,NA,NA,NA,NA,image-keyboard-response,221,658561,0.0-7.0-5.0-0.23,39,Study 39,Session 39,NA,2359,img/testing_events/Ac/Test_Ac_Event_18.jpg,e,response,c,NA,FALSE,Ac
NA,NA,NA,NA,NA,survey-text,222,667113,0.0-8.0,39,Study 39,Session 39,NA,8545,NA,"{""Q0"":""No"",""Q1"":""No"",""Q2"":""""}",NA,NA,NA,NA,NA
NA,NA,NA,NA,NA,survey-html-form,223,685969,0.0-9.0,39,Study 39,Session 39,NA,18855,NA,"{""Gender"":""Male"",""Age"":""26"",""ColorBlind"":""No"",""Education"":""Some College, no degree"",""Income"":""$50,000-$74,999"",""Race"":""Other/unknown"",""Fluent"":""Yes"",""AgeEnglish"":""0"",""Country"":""USA""}",NA,NA,NA,NA,NA
TRUE,NA,NA,NA,NA,fullscreen,224,685970,0.0-10.0,39,Study 39,Session 39,NA,NA,NA,NA,NA,NA,NA,NA,NA
