success,timeout,failed_images,failed_audio,failed_video,trial_type,trial_index,time_elapsed,internal_node_id,subject_id,study_id,session_id,view_history,rt,stimulus,response,task,correct_response,attention_duration,correct,retrieval_group
TRUE,FALSE,[],[],[],preload,0,724,0.0-0.0,3,Study 3,Session 3,NA,NA,NA,NA,NA,NA,NA,NA,NA
TRUE,NA,NA,NA,NA,fullscreen,1,3027,0.0-1.0,3,Study 3,Session 3,NA,NA,NA,NA,NA,NA,NA,NA,NA
NA,NA,NA,NA,NA,instructions,2,6307,0.0-2.0,3,Study 3,Session 3,"[{""page_index"":0,""viewing_time"":3279}]",3280,NA,NA,NA,NA,NA,NA,NA
NA,NA,NA,NA,NA,html-keyboard-response,3,12831,0.0-3.0,3,Study 3,Session 3,NA,6522,"Welcome to the experiment. <br /><br />This experiment will take about 20 minutes. Please complete all in one sitting. <br /><br />For this study, <strong>please use</strong> a laptop or desktop computer (not a mobile phone or tablet). Also, please use either <u>Chrome or Firefox</u>. <br /><br />Once you begin, <strong>DO NOT</strong> refresh the browser, as the experiment will reset and you will lose your progress. <br /><br />Press the <strong class=""upperline"">B</strong> key on your keyboard to begin.",b,NA,NA,NA,NA,NA
NA,NA,NA,NA,NA,instructions,4,32604,0.0-4.0,3,Study 3,Session 3,"[{""page_index"":0,""viewing_time"":3678},{""page_index"":1,""viewing_time"":8674},{""page_index"":2,""viewing_time"":6419}]",18771,NA,NA,NA,NA,NA,NA,NA
NA,NA,NA,NA,NA,html-keyboard-response,5,35630,0.0-5.0-0.0,3,Study 3,Session 3,NA,null,"<div style=""font-size:60px;"">+</div>",null,fixation,NA,NA,NA,NA
NA,NA,NA,NA,NA,image-keyboard-response,6,41633,0.0-5.0-1.0,3,Study 3,Session 3,NA,null,img/encoding_events/Event_13.jpg,null,NA,NA,NA,NA,NA
NA,NA,NA,NA,NA,html-keyboard-response,7,41635,0.0-5.0-2.0,3,Study 3,Session 3,NA,null,Please press the <strong><u>k</u></strong> key to continue,null,response,k,0,FALSE,NA
NA,NA,NA,NA,NA,html-keyboard-response,8,42148,0.0-5.0-0.1,3,Study 3,Session 3,NA,null,"<div style=""font-size:60px;"">+</div>",null,fixation,NA,NA,NA,NA
NA,NA,NA,NA,NA,image-keyboard-response,9,48162,0.0-5.0-1.1,3,Study 3,Session 3,NA,null,img/encoding_events/Event_7.jpg,null,NA,NA,NA,NA,NA
NA,NA,NA,NA,NA,html-keyboard-response,10,48168,0.0-5.0-2.1,3,Study 3,Session 3,NA,null,Please press the <strong><u>f</u></strong> key to continue,null,response,f,0,FALSE,NA
NA,NA,NA,NA,NA,html-keyboard-response,11,48677,0.0-5.0-0.2,3,Study 3,Session 3,NA,null,"<div style=""font-size:60px;"">+</div>",null,fixation,NA,NA,NA,NA
NA,NA,NA,NA,NA,image-keyboard-response,12,54691,0.0-5.0-1.2,3,Study 3,Session 3,NA,null,img/encoding_events/Event_22.jpg,null,NA,NA,NA,NA,NA
NA,NA,NA,NA,NA,html-keyboard-response,13,54696,0.0-5.0-2.2,3,Study 3,Session 3,NA,null,Please press the <strong><u>a</u></strong> key to continue,null,response,a,0,FALSE,NA
NA,NA,NA,NA,NA,html-keyboard-response,14,55204,0.0-5.0-0.3,3,Study 3,Session 3,NA,null,"<div style=""font-size:60px;"">+</div>",null,fixation,NA,NA,NA,NA
NA,NA,NA,NA,NA,image-keyboard-response,15,61220,0.0-5.0-1.3,3,Study 3,Session 3,NA,null,img/encoding_events/Event_20.jpg,null,NA,NA,NA,NA,NA
NA,NA,NA,NA,NA,html-keyboard-response,16,62962,0.0-5.0-2.3,3,Study 3,Session 3,NA,1741,Please press the <strong><u>s</u></strong> key to continue,s,response,s,6000,TRUE,NA
NA,NA,NA,NA,NA,html-keyboard-response,17,63465,0.0-5.0-0.4,3,Study 3,Session 3,NA,null,"<div style=""font-size:60px;"">+</div>",null,fixation,NA,NA,NA,NA
NA,NA,NA,NA,NA,image-keyboard-response,18,69474,0.0-5.0-1.4,3,Study 3,Session 3,NA,null,img/encoding_events/Event_18.jpg,null,NA,NA,NA,NA,NA
NA,NA,NA,NA,NA,html-keyboard-response,19,69475,0.0-5.0-2.4,3,Study 3,Session 3,NA,null,Please press the <strong><u>a</u></strong> key to continue,null,response,a,0,FALSE,NA
NA,NA,NA,NA,NA,html-keyboard-response,20,69988,0.0-5.0-0.5,3,Study 3,Session 3,NA,null,"<div style=""font-size:60px;"">+</div>",null,fixation,NA,NA,NA,NA
NA,NA,NA,NA,NA,image-keyboard-response,21,75990,0.0-5.0-1.5,3,Study 3,Session 3,NA,null,img/encoding_events/Event_16.jpg,null,NA,NA,NA,NA,NA
NA,NA,NA,NA,NA,html-keyboard-response,22,75995,0.0-5.0-2.5,3,Study 3,Session 3,NA,null,Please press the <strong><u>f</u></strong> key to continue,null,response,f,0,FALSE,NA
NA,NA,NA,NA,NA,html-keyboard-response,23,76508,0.0-5.0-0.6,3,Study 3,Session 3,NA,null,"<div style=""font-size:60px;"">+</div>",null,fixation,NA,NA,NA,NA
NA,NA,NA,NA,NA,image-keyboard-response,24,82522,0.0-5.0-1.6,3,Study 3,Session 3,NA,null,img/encoding_events/Event_14.jpg,null,NA,NA,NA,NA,NA
NA,NA,NA,NA,NA,html-keyboard-response,25,82527,0.0-5.0-2.6,3,Study 3,Session 3,NA,null,Please press the <strong><u>j</u></strong> key to continue,null,response,j,0,FALSE,NA
NA,NA,NA,NA,NA,html-keyboard-response,26,83037,0.0-5.0-0.7,3,Study 3,Session 3,NA,null,"<div style=""font-size:60px;"">+</div>",null,fixation,NA,NA,NA,NA
NA,NA,NA,NA,NA,image-keyboard-response,27,89052,0.0-5.0-1.7,3,Study 3,Session 3,NA,null,img/encoding_events/Event_1.jpg,null,NA,NA,NA,NA,NA
NA,NA,NA,NA,NA,html-keyboard-response,28,90659,0.0-5.0-2.7,3,Study 3,Session 3,NA,1606,Please press the <strong><u>s</u></strong> key to continue,s,response,s,6000,TRUE,NA
NA,NA,NA,NA,NA,html-keyboard-response,29,91163,0.0-5.0-0.8,3,Study 3,Session 3,NA,null,"<div style=""font-size:60px;"">+</div>",null,fixation,NA,NA,NA,NA
NA,NA,NA,NA,NA,image-keyboard-response,30,97176,0.0-5.0-1.8,3,Study 3,Session 3,NA,null,img/encoding_events/Event_9.jpg,null,NA,NA,NA,NA,NA
NA,NA,NA,NA,NA,html-keyboard-response,31,97177,0.0-5.0-2.8,3,Study 3,Session 3,NA,null,Please press the <strong><u>f</u></strong> key to continue,null,response,f,0,FALSE,NA
NA,NA,NA,NA,NA,html-keyboard-response,32,97692,0.0-5.0-0.9,3,Study 3,Session 3,NA,null,"<div style=""font-size:60px;"">+</div>",null,fixation,NA,NA,NA,NA
NA,NA,NA,NA,NA,image-keyboard-response,33,103708,0.0-5.0-1.9,3,Study 3,Session 3,NA,null,img/encoding_events/Event_19.jpg,null,NA,NA,NA,NA,NA
NA,NA,NA,NA,NA,html-keyboard-response,34,103713,0.0-5.0-2.9,3,Study 3,Session 3,NA,null,Please press the <strong><u>k</u></strong> key to continue,null,response,k,0,FALSE,NA
NA,NA,NA,NA,NA,html-keyboard-response,35,104220,0.0-5.0-0.10,3,Study 3,Session 3,NA,null,"<div style=""font-size:60px;"">+</div>",null,fixation,NA,NA,NA,NA
NA,NA,NA,NA,NA,image-keyboard-response,36,110222,0.0-5.0-1.10,3,Study 3,Session 3,NA,null,img/encoding_events/Event_10.jpg,null,NA,NA,NA,NA,NA
NA,NA,NA,NA,NA,html-keyboard-response,37,110227,0.0-5.0-2.10,3,Study 3,Session 3,NA,null,Please press the <strong><u>k</u></strong> key to continue,null,response,k,0,FALSE,NA
NA,NA,NA,NA,NA,html-keyboard-response,38,110737,0.0-5.0-0.11,3,Study 3,Session 3,NA,null,"<div style=""font-size:60px;"">+</div>",null,fixation,NA,NA,NA,NA
NA,NA,NA,NA,NA,image-keyboard-response,39,116752,0.0-5.0-1.11,3,Study 3,Session 3,NA,null,img/encoding_events/Event_4.jpg,null,NA,NA,NA,NA,NA
NA,NA,NA,NA,NA,html-keyboard-response,40,118249,0.0-5.0-2.11,3,Study 3,Session 3,NA,1496,Please press the <strong><u>k</u></strong> key to continue,k,response,k,6000,TRUE,NA
NA,NA,NA,NA,NA,html-keyboard-response,41,118755,0.0-5.0-0.12,3,Study 3,Session 3,NA,null,"<div style=""font-size:60px;"">+</div>",null,fixation,NA,NA,NA,NA
NA,NA,NA,NA,NA,image-keyboard-response,42,124758,0.0-5.0-1.12,3,Study 3,Session 3,NA,null,img/encoding_events/Event_5.jpg,null,NA,NA,NA,NA,NA
NA,NA,NA,NA,NA,html-keyboard-response,43,124760,0.0-5.0-2.12,3,Study 3,Session 3,NA,null,Please press the <strong><u>d</u></strong> key to continue,null,response,d,0,FALSE,NA
NA,NA,NA,NA,NA,html-keyboard-response,44,125262,0.0-5.0-0.13,3,Study 3,Session 3,NA,null,"<div style=""font-size:60px;"">+</div>",null,fixation,NA,NA,NA,NA
NA,NA,NA,NA,NA,image-keyboard-response,45,131270,0.0-5.0-1.13,3,Study 3,Session 3,NA,null,img/encoding_events/Event_8.jpg,null,NA,NA,NA,NA,NA
NA,NA,NA,NA,NA,html-keyboard-response,46,131275,0.0-5.0-2.13,3,Study 3,Session 3,NA,null,Please press the <strong><u>k</u></strong> key to continue,null,response,k,0,FALSE,NA
NA,NA,NA,NA,NA,html-keyboard-response,47,131784,0.0-5.0-0.14,3,Study 3,Session 3,NA,null,"<div style=""font-size:60px;"">+</div>",null,fixation,NA,NA,NA,NA
NA,NA,NA,NA,NA,image-keyboard-response,48,137798,0.0-5.0-1.14,3,Study 3,Session 3,NA,null,img/encoding_events/Event_24.jpg,null,NA,NA,NA,NA,NA
NA,NA,NA,NA,NA,html-keyboard-response,49,137803,0.0-5.0-2.14,3,Study 3,Session 3,NA,null,Please press the <strong><u>k</u></strong> key to continue,null,response,k,0,FALSE,NA
NA,NA,NA,NA,NA,html-keyboard-response,50,138314,0.0-5.0-0.15,3,Study 3,Session 3,NA,null,"<div style=""font-size:60px;"">+</div>",null,fixation,NA,NA,NA,NA
NA,NA,NA,NA,NA,image-keyboard-response,51,144328,0.0-5.0-1.15,3,Study 3,Session 3,NA,null,img/encoding_events/Event_15.jpg,null,NA,NA,NA,NA,NA
NA,NA,NA,NA,NA,html-keyboard-response,52,145765,0.0-5.0-2.15,3,Study 3,Session 3,NA,1436,Please press the <strong><u>j</u></strong> key to continue,j,response,j,6000,TRUE,NA
NA,NA,NA,NA,NA,html-keyboard-response,53,146269,0.0-5.0-0.16,3,Study 3,Session 3,NA,null,"<div style=""font-size:60px;"">+</div>",null,fixation,NA,NA,NA,NA
NA,NA,NA,NA,NA,image-keyboard-response,54,152273,0.0-5.0-1.16,3,Study 3,Session 3,NA,null,img/encoding_events/Event_2.jpg,null,NA,NA,NA,NA,NA
NA,NA,NA,NA,NA,html-keyboard-response,55,152275,0.0-5.0-2.16,3,Study 3,Session 3,NA,null,Please press the <strong><u>d</u></strong> key to continue,null,response,d,0,FALSE,NA
NA,NA,NA,NA,NA,html-keyboard-response,56,152790,0.0-5.0-0.17,3,Study 3,Session 3,NA,null,"<div style=""font-size:60px;"">+</div>",null,fixation,NA,NA,NA,NA
NA,NA,NA,NA,NA,image-keyboard-response,57,158795,0.0-5.0-1.17,3,Study 3,Session 3,NA,null,img/encoding_events/Event_11.jpg,null,NA,NA,NA,NA,NA
NA,NA,NA,NA,NA,html-keyboard-response,58,158800,0.0-5.0-2.17,3,Study 3,Session 3,NA,null,Please press the <strong><u>d</u></strong> key to continue,null,response,d,0,FALSE,NA
NA,NA,NA,NA,NA,html-keyboard-response,59,159307,0.0-5.0-0.18,3,Study 3,Session 3,NA,null,"<div style=""font-size:60px;"">+</div>",null,fixation,NA,NA,NA,NA
NA,NA,NA,NA,NA,image-keyboard-response,60,165322,0.0-5.0-1.18,3,Study 3,Session 3,NA,null,img/encoding_events/Event_3.jpg,null,NA,NA,NA,NA,NA
NA,NA,NA,NA,NA,html-keyboard-response,61,165328,0.0-5.0-2.18,3,Study 3,Session 3,NA,null,Please press the <strong><u>a</u></strong> key to continue,null,response,a,0,FALSE,NA
NA,NA,NA,NA,NA,html-keyboard-response,62,165835,0.0-5.0-0.19,3,Study 3,Session 3,NA,null,"<div style=""font-size:60px;"">+</div>",null,fixation,NA,NA,NA,NA
NA,NA,NA,NA,NA,image-keyboard-response,63,171837,0.0-5.0-1.19,3,Study 3,Session 3,NA,null,img/encoding_events/Event_17.jpg,null,NA,NA,NA,NA,NA
NA,NA,NA,NA,NA,html-keyboard-response,64,173621,0.0-5.0-2.19,3,Study 3,Session 3,NA,1784,Please press the <strong><u>k</u></strong> key to continue,k,response,k,6000,TRUE,NA
NA,NA,NA,NA,NA,html-keyboard-response,65,174130,0.0-5.0-0.20,3,Study 3,Session 3,NA,null,"<div style=""font-size:60px;"">+</div>",null,fixation,NA,NA,NA,NA
NA,NA,NA,NA,NA,image-keyboard-response,66,180133,0.0-5.0-1.20,3,Study 3,Session 3,NA,null,img/encoding_events/Event_23.jpg,null,NA,NA,NA,NA,NA
NA,NA,NA,NA,NA,html-keyboard-response,67,180134,0.0-5.0-2.20,3,Study 3,Session 3,NA,null,Please press the <strong><u>k</u></strong> key to continue,null,response,k,0,FALSE,NA
NA,NA,NA,NA,NA,html-keyboard-response,68,180636,0.0-5.0-0.21,3,Study 3,Session 3,NA,null,"<div style=""font-size:60px;"">+</div>",null,fixation,NA,NA,NA,NA
NA,NA,NA,NA,NA,image-keyboard-response,69,186640,0.0-5.0-1.21,3,Study 3,Session 3,NA,null,img/encoding_events/Event_6.jpg,null,NA,NA,NA,NA,NA
NA,NA,NA,NA,NA,html-keyboard-response,70,186646,0.0-5.0-2.21,3,Study 3,Session 3,NA,null,Please press the <strong><u>k</u></strong> key to continue,null,response,k,0,FALSE,NA
NA,NA,NA,NA,NA,html-keyboard-response,71,187158,0.0-5.0-0.22,3,Study 3,Session 3,NA,null,"<div style=""font-size:60px;"">+</div>",null,fixation,NA,NA,NA,NA
NA,NA,NA,NA,NA,image-keyboard-response,72,193161,0.0-5.0-1.22,3,Study 3,Session 3,NA,null,img/encoding_events/Event_12.jpg,null,NA,NA,NA,NA,NA
NA,NA,NA,NA,NA,html-keyboard-response,73,193166,0.0-5.0-2.22,3,Study 3,Session 3,NA,null,Please press the <strong><u>k</u></strong> key to continue,null,response,k,0,FALSE,NA
NA,NA,NA,NA,NA,html-keyboard-response,74,193675,0.0-5.0-0.23,3,Study 3,Session 3,NA,null,"<div style=""font-size:60px;"">+</div>",null,fixation,NA,NA,NA,NA
NA,NA,NA,NA,NA,image-keyboard-response,75,199686,0.0-5.0-1.23,3,Study 3,Session 3,NA,null,img/encoding_events/Event_21.jpg,null,NA,NA,NA,NA,NA
NA,NA,NA,NA,NA,html-keyboard-response,76,201450,0.0-5.0-2.23,3,Study 3,Session 3,NA,1764,Please press the <strong><u>j</u></strong> key to continue,j,response,j,6000,TRUE,NA
NA,NA,NA,NA,NA,instructions,77,238966,0.0-6.0,3,Study 3,Session 3,"[{""page_index"":0,""viewing_time"":1602},{""page_index"":1,""viewing_time"":4888},{""page_index"":2,""viewing_time"":3224},{""page_index"":3,""viewing_time"":14570},{""page_index"":4,""viewing_time"":5035},{""page_index"":5,""viewing_time"":5896},{""page_index"":6,""viewing_time"":2300}]",37515,NA,NA,NA,NA,NA,NA,NA
NA,NA,NA,NA,NA,image-keyboard-response,78,244504,0.0-7.0-0.0-0.0,3,Study 3,Session 3,NA,3027,img/testing_events/Ab/Test_Ab_Event_18.jpg,u,response,u,NA,TRUE,Ab
NA,NA,NA,NA,NA,image-keyboard-response,79,246909,0.0-7.0-0.0-0.1,3,Study 3,Session 3,NA,2404,img/testing_events/Ab/Test_Ab_Event_11.jpg,c,response,c,NA,TRUE,Ab
NA,NA,NA,NA,NA,image-keyboard-response,80,251506,0.0-7.0-0.0-0.2,3,Study 3,Session 3,NA,4597,img/testing_events/Ab/Test_Ab_Event_7.jpg,c,response,c,NA,TRUE,Ab
NA,NA,NA,NA,NA,image-keyboard-response,81,255237,0.0-7.0-0.0-0.3,3,Study 3,Session 3,NA,3729,img/testing_events/Ab/Test_Ab_Event_8.jpg,n,response,n,NA,TRUE,Ab
NA,NA,NA,NA,NA,image-keyboard-response,82,256415,0.0-7.0-0.0-0.4,3,Study 3,Session 3,NA,1176,img/testing_events/Ab/Test_Ab_Event_19.jpg,c,response,c,NA,TRUE,Ab
NA,NA,NA,NA,NA,image-keyboard-response,83,258951,0.0-7.0-0.0-0.5,3,Study 3,Session 3,NA,2535,img/testing_events/Ab/Test_Ab_Event_9.jpg,e,response,e,NA,TRUE,Ab
NA,NA,NA,NA,NA,image-keyboard-response,84,261326,0.0-7.0-0.0-0.6,3,Study 3,Session 3,NA,2374,img/testing_events/Ab/Test_Ab_Event_2.jpg,e,response,u,NA,FALSE,Ab
NA,NA,NA,NA,NA,image-keyboard-response,85,262707,0.0-7.0-0.0-0.7,3,Study 3,Session 3,NA,1381,img/testing_events/Ab/Test_Ab_Event_13.jpg,e,response,e,NA,TRUE,Ab
NA,NA,NA,NA,NA,image-keyboard-response,86,266270,0.0-7.0-0.0-0.8,3,Study 3,Session 3,NA,3561,img/testing_events/Ab/Test_Ab_Event_12.jpg,n,response,n,NA,TRUE,Ab
NA,NA,NA,NA,NA,image-keyboard-response,87,267409,0.0-7.0-0.0-0.9,3,Study 3,Session 3,NA,1138,img/testing_events/Ab/Test_Ab_Event_15.jpg,c,response,c,NA,TRUE,Ab
NA,NA,NA,NA,NA,image-keyboard-response,88,271430,0.0-7.0-0.0-0.10,3,Study 3,Session 3,NA,4020,img/testing_events/Ab/Test_Ab_Event_23.jpg,c,response,c,NA,TRUE,Ab
NA,NA,NA,NA,NA,image-keyboard-response,89,273999,0.0-7.0-0.0-0.11,3,Study 3,Session 3,NA,2568,img/testing_events/Ab/Test_Ab_Event_1.jpg,e,response,e,NA,TRUE,Ab
NA,NA,NA,NA,NA,image-keyboard-response,90,275896,0.0-7.0-0.0-0.12,3,Study 3,Session 3,NA,1895,img/testing_events/Ab/Test_Ab_Event_16.jpg,n,response,n,NA,TRUE,Ab
NA,NA,NA,NA,NA,image-keyboard-response,91,277974,0.0-7.0-0.0-0.13,3,Study 3,Session 3,NA,2077,img/testing_events/Ab/Test_Ab_Event_17.jpg,e,response,e,NA,TRUE,Ab
NA,NA,NA,NA,NA,image-keyboard-response,92,280248,0.0-7.0-0.0-0.14,3,Study 3,Session 3,NA,2273,img/testing_events/Ab/Test_Ab_Event_22.jpg,u,response,u,NA,TRUE,Ab
NA,NA,NA,NA,NA,image-keyboard-response,93,285140,0.0-7.0-0.0-0.15,3,Study 3,Session 3,NA,4892,img/testing_events/Ab/Test_Ab_Event_4.jpg,u,response,n,NA,FALSE,Ab
NA,NA,NA,NA,NA,image-keyboard-response,94,288315,0.0-7.0-0.0-0.16,3,Study 3,Session 3,NA,3174,img/testing_events/Ab/Test_Ab_Event_3.jpg,c,response,c,NA,TRUE,Ab
NA,NA,NA,NA,NA,image-keyboard-response,95,290853,0.0-7.0-0.0-0.17,3,Study 3,Session 3,NA,2536,img/testing_events/Ab/Test_Ab_Event_24.jpg,n,response,n,NA,TRUE,Ab
NA,NA,NA,NA,NA,image-keyboard-response,96,293824,0.0-7.0-0.0-0.18,3,Study 3,Session 3,NA,2969,img/testing_events/Ab/Test_Ab_Event_20.jpg,n,response,n,NA,TRUE,Ab
NA,NA,NA,NA,NA,image-keyboard-response,97,299238,0.0-7.0-0.0-0.19,3,Study 3,Session 3,NA,5413,img/testing_events/Ab/Test_Ab_Event_6.jpg,u,response,u,NA,TRUE,Ab
NA,NA,NA,NA,NA,image-keyboard-response,98,300917,0.0-7.0-0.0-0.20,3,Study 3,Session 3,NA,1678,img/testing_events/Ab/Test_Ab_Event_14.jpg,u,response,u,NA,TRUE,Ab
NA,NA,NA,NA,NA,image-keyboard-response,99,305106,0.0-7.0-0.0-0.21,3,Study 3,Session 3,NA,4188,img/testing_events/Ab/Test_Ab_Event_10.jpg,n,response,u,NA,FALSE,Ab
NA,NA,NA,NA,NA,image-keyboard-response,100,307893,0.0-7.0-0.0-0.22,3,Study 3,Session 3,NA,2785,img/testing_events/Ab/Test_Ab_Event_5.jpg,c,response,e,NA,FALSE,Ab
NA,NA,NA,NA,NA,image-keyboard-response,101,310876,0.0-7.0-0.0-0.23,3,Study 3,Session 3,NA,2982,img/testing_events/Ab/Test_Ab_Event_21.jpg,e,response,e,NA,TRUE,Ab
NA,NA,NA,NA,NA,image-keyboard-response,102,314076,0.0-7.0-1.0-0.0,3,Study 3,Session 3,NA,3199,img/testing_events/Ba/Test_Ba_Event_23.jpg,e,response,e,NA,TRUE,Ba
NA,NA,NA,NA,NA,image-keyboard-response,103,320544,0.0-7.0-1.0-0.1,3,Study 3,Session 3,NA,6467,img/testing_events/Ba/Test_Ba_Event_5.jpg,c,response,c,NA,TRUE,Ba
NA,NA,NA,NA,NA,image-keyboard-response,104,321487,0.0-7.0-1.0-0.2,3,Study 3,Session 3,NA,943,img/testing_events/Ba/Test_Ba_Event_15.jpg,e,response,e,NA,TRUE,Ba
NA,NA,NA,NA,NA,image-keyboard-response,105,323119,0.0-7.0-1.0-0.3,3,Study 3,Session 3,NA,1631,img/testing_events/Ba/Test_Ba_Event_24.jpg,u,response,u,NA,TRUE,Ba
NA,NA,NA,NA,NA,image-keyboard-response,106,325495,0.0-7.0-1.0-0.4,3,Study 3,Session 3,NA,2374,img/testing_events/Ba/Test_Ba_Event_3.jpg,e,response,e,NA,TRUE,Ba
NA,NA,NA,NA,NA,image-keyboard-response,107,330417,0.0-7.0-1.0-0.5,3,Study 3,Session 3,NA,4922,img/testing_events/Ba/Test_Ba_Event_12.jpg,n,response,u,NA,FALSE,Ba
NA,NA,NA,NA,NA,image-keyboard-response,108,333150,0.0-7.0-1.0-0.6,3,Study 3,Session 3,NA,2732,img/testing_events/Ba/Test_Ba_Event_11.jpg,c,response,e,NA,FALSE,Ba
NA,NA,NA,NA,NA,image-keyboard-response,109,336599,0.0-7.0-1.0-0.7,3,Study 3,Session 3,NA,3448,img/testing_events/Ba/Test_Ba_Event_20.jpg,u,response,u,NA,TRUE,Ba
NA,NA,NA,NA,NA,image-keyboard-response,110,339457,0.0-7.0-1.0-0.8,3,Study 3,Session 3,NA,2857,img/testing_events/Ba/Test_Ba_Event_4.jpg,u,response,u,NA,TRUE,Ba
NA,NA,NA,NA,NA,image-keyboard-response,111,342148,0.0-7.0-1.0-0.9,3,Study 3,Session 3,NA,2690,img/testing_events/Ba/Test_Ba_Event_18.jpg,n,response,n,NA,TRUE,Ba
NA,NA,NA,NA,NA,image-keyboard-response,112,346687,0.0-7.0-1.0-0.10,3,Study 3,Session 3,NA,4537,img/testing_events/Ba/Test_Ba_Event_10.jpg,e,response,n,NA,FALSE,Ba
NA,NA,NA,NA,NA,image-keyboard-response,113,349786,0.0-7.0-1.0-0.11,3,Study 3,Session 3,NA,3099,img/testing_events/Ba/Test_Ba_Event_9.jpg,c,response,c,NA,TRUE,Ba
NA,NA,NA,NA,NA,image-keyboard-response,114,352841,0.0-7.0-1.0-0.12,3,Study 3,Session 3,NA,3052,img/testing_events/Ba/Test_Ba_Event_2.jpg,n,response,n,NA,TRUE,Ba
NA,NA,NA,NA,NA,image-keyboard-response,115,358518,0.0-7.0-1.0-0.13,3,Study 3,Session 3,NA,5677,img/testing_events/Ba/Test_Ba_Event_1.jpg,u,response,c,NA,FALSE,Ba
NA,NA,NA,NA,NA,image-keyboard-response,116,360653,0.0-7.0-1.0-0.14,3,Study 3,Session 3,NA,2133,img/testing_events/Ba/Test_Ba_Event_14.jpg,n,response,n,NA,TRUE,Ba
NA,NA,NA,NA,NA,image-keyboard-response,117,362116,0.0-7.0-1.0-0.15,3,Study 3,Session 3,NA,1462,img/testing_events/Ba/Test_Ba_Event_16.jpg,u,response,u,NA,TRUE,Ba
NA,NA,NA,NA,NA,image-keyboard-response,118,368122,0.0-7.0-1.0-0.16,3,Study 3,Session 3,NA,6005,img/testing_events/Ba/Test_Ba_Event_22.jpg,n,response,n,NA,TRUE,Ba
NA,NA,NA,NA,NA,image-keyboard-response,119,369725,0.0-7.0-1.0-0.17,3,Study 3,Session 3,NA,1602,img/testing_events/Ba/Test_Ba_Event_7.jpg,e,response,e,NA,TRUE,Ba
NA,NA,NA,NA,NA,image-keyboard-response,120,373378,0.0-7.0-1.0-0.18,3,Study 3,Session 3,NA,3653,img/testing_events/Ba/Test_Ba_Event_6.jpg,u,response,n,NA,FALSE,Ba
NA,NA,NA,NA,NA,image-keyboard-response,121,375950,0.0-7.0-1.0-0.19,3,Study 3,Session 3,NA,2572,img/testing_events/Ba/Test_Ba_Event_21.jpg,c,response,c,NA,TRUE,Ba
NA,NA,NA,NA,NA,image-keyboard-response,122,376898,0.0-7.0-1.0-0.20,3,Study 3,Session 3,NA,947,img/testing_events/Ba/Test_Ba_Event_19.jpg,e,response,e,NA,TRUE,Ba
NA,NA,NA,NA,NA,image-keyboard-response,123,378993,0.0-7.0-1.0-0.21,3,Study 3,Session 3,NA,2093,img/testing_events/Ba/Test_Ba_Event_17.jpg,c,response,c,NA,TRUE,Ba
NA,NA,NA,NA,NA,image-keyboard-response,124,380971,0.0-7.0-1.0-0.22,3,Study 3,Session 3,NA,1976,img/testing_events/Ba/Test_Ba_Event_13.jpg,c,response,c,NA,TRUE,Ba
NA,NA,NA,NA,NA,image-keyboard-response,125,382500,0.0-7.0-1.0-0.23,3,Study 3,Session 3,NA,1528,img/testing_events/Ba/Test_Ba_Event_8.jpg,u,response,u,NA,TRUE,Ba
NA,NA,NA,NA,NA,image-keyboard-response,126,387845,0.0-7.0-2.0-0.0,3,Study 3,Session 3,NA,5344,img/testing_events/Ca/Test_Ca_Event_20.jpg,c,response,n,NA,FALSE,Ca
NA,NA,NA,NA,NA,image-keyboard-response,127,390472,0.0-7.0-2.0-0.1,3,Study 3,Session 3,NA,2626,img/testing_events/Ca/Test_Ca_Event_10.jpg,u,response,u,NA,TRUE,Ca
NA,NA,NA,NA,NA,image-keyboard-response,128,392673,0.0-7.0-2.0-0.2,3,Study 3,Session 3,NA,2201,img/testing_events/Ca/Test_Ca_Event_12.jpg,e,response,n,NA,FALSE,Ca
NA,NA,NA,NA,NA,image-keyboard-response,129,398778,0.0-7.0-2.0-0.3,3,Study 3,Session 3,NA,6104,img/testing_events/Ca/Test_Ca_Event_19.jpg,c,response,c,NA,TRUE,Ca
NA,NA,NA,NA,NA,image-keyboard-response,130,401167,0.0-7.0-2.0-0.4,3,Study 3,Session 3,NA,2389,img/testing_events/Ca/Test_Ca_Event_21.jpg,n,response,e,NA,FALSE,Ca
NA,NA,NA,NA,NA,image-keyboard-response,131,407682,0.0-7.0-2.0-0.5,3,Study 3,Session 3,NA,6513,img/testing_events/Ca/Test_Ca_Event_5.jpg,e,response,e,NA,TRUE,Ca
NA,NA,NA,NA,NA,image-keyboard-response,132,410214,0.0-7.0-2.0-0.6,3,Study 3,Session 3,NA,2532,img/testing_events/Ca/Test_Ca_Event_4.jpg,n,response,n,NA,TRUE,Ca
NA,NA,NA,NA,NA,image-keyboard-response,133,412992,0.0-7.0-2.0-0.7,3,Study 3,Session 3,NA,2778,img/testing_events/Ca/Test_Ca_Event_9.jpg,e,response,e,NA,TRUE,Ca
NA,NA,NA,NA,NA,image-keyboard-response,134,415278,0.0-7.0-2.0-0.8,3,Study 3,Session 3,NA,2286,img/testing_events/Ca/Test_Ca_Event_1.jpg,c,response,e,NA,FALSE,Ca
NA,NA,NA,NA,NA,image-keyboard-response,135,417005,0.0-7.0-2.0-0.9,3,Study 3,Session 3,NA,1726,img/testing_events/Ca/Test_Ca_Event_2.jpg,n,response,u,NA,FALSE,Ca
NA,NA,NA,NA,NA,image-keyboard-response,136,419972,0.0-7.0-2.0-0.10,3,Study 3,Session 3,NA,2966,img/testing_events/Ca/Test_Ca_Event_14.jpg,c,response,u,NA,FALSE,Ca
NA,NA,NA,NA,NA,image-keyboard-response,137,422652,0.0-7.0-2.0-0.11,3,Study 3,Session 3,NA,2678,img/testing_events/Ca/Test_Ca_Event_17.jpg,u,response,e,NA,FALSE,Ca
NA,NA,NA,NA,NA,image-keyboard-response,138,427466,0.0-7.0-2.0-0.12,3,Study 3,Session 3,NA,4813,img/testing_events/Ca/Test_Ca_Event_8.jpg,n,response,n,NA,TRUE,Ca
NA,NA,NA,NA,NA,image-keyboard-response,139,432375,0.0-7.0-2.0-0.13,3,Study 3,Session 3,NA,4909,img/testing_events/Ca/Test_Ca_Event_24.jpg,c,response,n,NA,FALSE,Ca
NA,NA,NA,NA,NA,image-keyboard-response,140,433946,0.0-7.0-2.0-0.14,3,Study 3,Session 3,NA,1570,img/testing_events/Ca/Test_Ca_Event_22.jpg,e,response,u,NA,FALSE,Ca
NA,NA,NA,NA,NA,image-keyboard-response,141,436208,0.0-7.0-2.0-0.15,3,Study 3,Session 3,NA,2262,img/testing_events/Ca/Test_Ca_Event_15.jpg,e,response,c,NA,FALSE,Ca
NA,NA,NA,NA,NA,image-keyboard-response,142,438986,0.0-7.0-2.0-0.16,3,Study 3,Session 3,NA,2778,img/testing_events/Ca/Test_Ca_Event_6.jpg,u,response,u,NA,TRUE,Ca
NA,NA,NA,NA,NA,image-keyboard-response,143,440558,0.0-7.0-2.0-0.17,3,Study 3,Session 3,NA,1572,img/testing_events/Ca/Test_Ca_Event_7.jpg,u,response,c,NA,FALSE,Ca
NA,NA,NA,NA,NA,image-keyboard-response,144,443094,0.0-7.0-2.0-0.18,3,Study 3,Session 3,NA,2535,img/testing_events/Ca/Test_Ca_Event_16.jpg,c,response,n,NA,FALSE,Ca
NA,NA,NA,NA,NA,image-keyboard-response,145,448360,0.0-7.0-2.0-0.19,3,Study 3,Session 3,NA,5265,img/testing_events/Ca/Test_Ca_Event_18.jpg,n,response,u,NA,FALSE,Ca
NA,NA,NA,NA,NA,image-keyboard-response,146,451015,0.0-7.0-2.0-0.20,3,Study 3,Session 3,NA,2654,img/testing_events/Ca/Test_Ca_Event_23.jpg,c,response,c,NA,TRUE,Ca
NA,NA,NA,NA,NA,image-keyboard-response,147,454789,0.0-7.0-2.0-0.21,3,Study 3,Session 3,NA,3773,img/testing_events/Ca/Test_Ca_Event_11.jpg,e,response,c,NA,FALSE,Ca
NA,NA,NA,NA,NA,image-keyboard-response,148,456560,0.0-7.0-2.0-0.22,3,Study 3,Session 3,NA,1771,img/testing_events/Ca/Test_Ca_Event_13.jpg,u,response,e,NA,FALSE,Ca
NA,NA,NA,NA,NA,image-keyboard-response,149,458033,0.0-7.0-2.0-0.23,3,Study 3,Session 3,NA,1471,img/testing_events/Ca/Test_Ca_Event_3.jpg,e,response,c,NA,FALSE,Ca
NA,NA,NA,NA,NA,image-keyboard-response,150,461073,0.0-7.0-3.0-0.0,3,Study 3,Session 3,NA,3039,img/testing_events/Bc/Test_Bc_Event_2.jpg,e,response,e,NA,TRUE,Bc
NA,NA,NA,NA,NA,image-keyboard-response,151,462455,0.0-7.0-3.0-0.1,3,Study 3,Session 3,NA,1379,img/testing_events/Bc/Test_Bc_Event_22.jpg,e,response,e,NA,TRUE,Bc
NA,NA,NA,NA,NA,image-keyboard-response,152,464120,0.0-7.0-3.0-0.2,3,Study 3,Session 3,NA,1665,img/testing_events/Bc/Test_Bc_Event_21.jpg,n,response,n,NA,TRUE,Bc
NA,NA,NA,NA,NA,image-keyboard-response,153,465778,0.0-7.0-3.0-0.3,3,Study 3,Session 3,NA,1657,img/testing_events/Bc/Test_Bc_Event_1.jpg,n,response,n,NA,TRUE,Bc
NA,NA,NA,NA,NA,image-keyboard-response,154,468017,0.0-7.0-3.0-0.4,3,Study 3,Session 3,NA,2238,img/testing_events/Bc/Test_Bc_Event_18.jpg,u,response,e,NA,FALSE,Bc
NA,NA,NA,NA,NA,image-keyboard-response,155,470362,0.0-7.0-3.0-0.5,3,Study 3,Session 3,NA,2344,img/testing_events/Bc/Test_Bc_Event_5.jpg,u,response,n,NA,FALSE,Bc
NA,NA,NA,NA,NA,image-keyboard-response,156,472333,0.0-7.0-3.0-0.6,3,Study 3,Session 3,NA,1969,img/testing_events/Bc/Test_Bc_Event_24.jpg,c,response,c,NA,TRUE,Bc
NA,NA,NA,NA,NA,image-keyboard-response,157,475066,0.0-7.0-3.0-0.7,3,Study 3,Session 3,NA,2731,img/testing_events/Bc/Test_Bc_Event_14.jpg,n,response,e,NA,FALSE,Bc
NA,NA,NA,NA,NA,image-keyboard-response,158,476780,0.0-7.0-3.0-0.8,3,Study 3,Session 3,NA,1713,img/testing_events/Bc/Test_Bc_Event_12.jpg,u,response,c,NA,FALSE,Bc
NA,NA,NA,NA,NA,image-keyboard-response,159,479107,0.0-7.0-3.0-0.9,3,Study 3,Session 3,NA,2325,img/testing_events/Bc/Test_Bc_Event_11.jpg,c,response,u,NA,FALSE,Bc
NA,NA,NA,NA,NA,image-keyboard-response,160,482401,0.0-7.0-3.0-0.10,3,Study 3,Session 3,NA,3292,img/testing_events/Bc/Test_Bc_Event_23.jpg,n,response,u,NA,FALSE,Bc
NA,NA,NA,NA,NA,image-keyboard-response,161,483475,0.0-7.0-3.0-0.11,3,Study 3,Session 3,NA,1073,img/testing_events/Bc/Test_Bc_Event_7.jpg,e,response,u,NA,FALSE,Bc
NA,NA,NA,NA,NA,image-keyboard-response,162,485727,0.0-7.0-3.0-0.12,3,Study 3,Session 3,NA,2251,img/testing_events/Bc/Test_Bc_Event_20.jpg,u,response,c,NA,FALSE,Bc
NA,NA,NA,NA,NA,image-keyboard-response,163,487774,0.0-7.0-3.0-0.13,3,Study 3,Session 3,NA,2047,img/testing_events/Bc/Test_Bc_Event_10.jpg,n,response,e,NA,FALSE,Bc
NA,NA,NA,NA,NA,image-keyboard-response,164,489153,0.0-7.0-3.0-0.14,3,Study 3,Session 3,NA,1377,img/testing_events/Bc/Test_Bc_Event_3.jpg,e,response,u,NA,FALSE,Bc
NA,NA,NA,NA,NA,image-keyboard-response,165,491046,0.0-7.0-3.0-0.15,3,Study 3,Session 3,NA,1891,img/testing_events/Bc/Test_Bc_Event_6.jpg,n,response,e,NA,FALSE,Bc
NA,NA,NA,NA,NA,image-keyboard-response,166,492743,0.0-7.0-3.0-0.16,3,Study 3,Session 3,NA,1697,img/testing_events/Bc/Test_Bc_Event_19.jpg,u,response,u,NA,TRUE,Bc
NA,NA,NA,NA,NA,image-keyboard-response,167,494869,0.0-7.0-3.0-0.17,3,Study 3,Session 3,NA,2124,img/testing_events/Bc/Test_Bc_Event_8.jpg,c,response,c,NA,TRUE,Bc
NA,NA,NA,NA,NA,image-keyboard-response,168,497910,0.0-7.0-3.0-0.18,3,Study 3,Session 3,NA,3040,img/testing_events/Bc/Test_Bc_Event_4.jpg,c,response,c,NA,TRUE,Bc
NA,NA,NA,NA,NA,image-keyboard-response,169,499588,0.0-7.0-3.0-0.19,3,Study 3,Session 3,NA,1677,img/testing_events/Bc/Test_Bc_Event_15.jpg,u,response,u,NA,TRUE,Bc
NA,NA,NA,NA,NA,image-keyboard-response,170,501737,0.0-7.0-3.0-0.20,3,Study 3,Session 3,NA,2149,img/testing_events/Bc/Test_Bc_Event_17.jpg,n,response,n,NA,TRUE,Bc
NA,NA,NA,NA,NA,image-keyboard-response,171,504185,0.0-7.0-3.0-0.21,3,Study 3,Session 3,NA,2448,img/testing_events/Bc/Test_Bc_Event_9.jpg,c,response,n,NA,FALSE,Bc
NA,NA,NA,NA,NA,image-keyboard-response,172,505602,0.0-7.0-3.0-0.22,3,Study 3,Session 3,NA,1416,img/testing_events/Bc/Test_Bc_Event_16.jpg,e,response,c,NA,FALSE,Bc
NA,NA,NA,NA,NA,image-keyboard-response,173,507206,0.0-7.0-3.0-0.23,3,Study 3,Session 3,NA,1604,img/testing_events/Bc/Test_Bc_Event_13.jpg,u,response,n,NA,FALSE,Bc
NA,NA,NA,NA,NA,image-keyboard-response,174,510071,0.0-7.0-4.0-0.0,3,Study 3,Session 3,NA,2863,img/testing_events/Cb/Test_Cb_Event_1.jpg,c,response,u,NA,FALSE,Cb
NA,NA,NA,NA,NA,image-keyboard-response,175,511210,0.0-7.0-4.0-0.1,3,Study 3,Session 3,NA,1137,img/testing_events/Cb/Test_Cb_Event_9.jpg,u,response,u,NA,TRUE,Cb
NA,NA,NA,NA,NA,image-keyboard-response,176,512271,0.0-7.0-4.0-0.2,3,Study 3,Session 3,NA,1061,img/testing_events/Cb/Test_Cb_Event_2.jpg,n,response,c,NA,FALSE,Cb
NA,NA,NA,NA,NA,image-keyboard-response,177,513139,0.0-7.0-4.0-0.3,3,Study 3,Session 3,NA,867,img/testing_events/Cb/Test_Cb_Event_18.jpg,e,response,c,NA,FALSE,Cb
NA,NA,NA,NA,NA,image-keyboard-response,178,514144,0.0-7.0-4.0-0.4,3,Study 3,Session 3,NA,1004,img/testing_events/Cb/Test_Cb_Event_17.jpg,u,response,u,NA,TRUE,Cb
NA,NA,NA,NA,NA,image-keyboard-response,179,515137,0.0-7.0-4.0-0.5,3,Study 3,Session 3,NA,992,img/testing_events/Cb/Test_Cb_Event_23.jpg,n,response,n,NA,TRUE,Cb
NA,NA,NA,NA,NA,image-keyboard-response,180,516026,0.0-7.0-4.0-0.6,3,Study 3,Session 3,NA,888,img/testing_events/Cb/Test_Cb_Event_16.jpg,e,response,e,NA,TRUE,Cb
NA,NA,NA,NA,NA,image-keyboard-response,181,517141,0.0-7.0-4.0-0.7,3,Study 3,Session 3,NA,1114,img/testing_events/Cb/Test_Cb_Event_19.jpg,c,response,n,NA,FALSE,Cb
NA,NA,NA,NA,NA,image-keyboard-response,182,517898,0.0-7.0-4.0-0.8,3,Study 3,Session 3,NA,756,img/testing_events/Cb/Test_Cb_Event_6.jpg,u,response,c,NA,FALSE,Cb
NA,NA,NA,NA,NA,image-keyboard-response,183,518845,0.0-7.0-4.0-0.9,3,Study 3,Session 3,NA,946,img/testing_events/Cb/Test_Cb_Event_3.jpg,n,response,n,NA,TRUE,Cb
NA,NA,NA,NA,NA,image-keyboard-response,184,519503,0.0-7.0-4.0-0.10,3,Study 3,Session 3,NA,657,img/testing_events/Cb/Test_Cb_Event_10.jpg,e,response,c,NA,FALSE,Cb
NA,NA,NA,NA,NA,image-keyboard-response,185,520350,0.0-7.0-4.0-0.11,3,Study 3,Session 3,NA,846,img/testing_events/Cb/Test_Cb_Event_8.jpg,c,response,e,NA,FALSE,Cb
NA,NA,NA,NA,NA,image-keyboard-response,186,520919,0.0-7.0-4.0-0.12,3,Study 3,Session 3,NA,569,img/testing_events/Cb/Test_Cb_Event_20.jpg,u,response,e,NA,FALSE,Cb
NA,NA,NA,NA,NA,image-keyboard-response,187,521626,0.0-7.0-4.0-0.13,3,Study 3,Session 3,NA,706,img/testing_events/Cb/Test_Cb_Event_11.jpg,n,response,n,NA,TRUE,Cb
NA,NA,NA,NA,NA,image-keyboard-response,188,522156,0.0-7.0-4.0-0.14,3,Study 3,Session 3,NA,528,img/testing_events/Cb/Test_Cb_Event_5.jpg,e,response,u,NA,FALSE,Cb
NA,NA,NA,NA,NA,image-keyboard-response,189,523227,0.0-7.0-4.0-0.15,3,Study 3,Session 3,NA,1071,img/testing_events/Cb/Test_Cb_Event_12.jpg,u,response,e,NA,FALSE,Cb
NA,NA,NA,NA,NA,image-keyboard-response,190,524313,0.0-7.0-4.0-0.16,3,Study 3,Session 3,NA,1085,img/testing_events/Cb/Test_Cb_Event_21.jpg,c,response,u,NA,FALSE,Cb
NA,NA,NA,NA,NA,image-keyboard-response,191,524856,0.0-7.0-4.0-0.17,3,Study 3,Session 3,NA,542,img/testing_events/Cb/Test_Cb_Event_7.jpg,u,response,n,NA,FALSE,Cb
NA,NA,NA,NA,NA,image-keyboard-response,192,525251,0.0-7.0-4.0-0.18,3,Study 3,Session 3,NA,394,img/testing_events/Cb/Test_Cb_Event_22.jpg,n,response,c,NA,FALSE,Cb
NA,NA,NA,NA,NA,image-keyboard-response,193,525645,0.0-7.0-4.0-0.19,3,Study 3,Session 3,NA,393,img/testing_events/Cb/Test_Cb_Event_15.jpg,e,response,n,NA,FALSE,Cb
NA,NA,NA,NA,NA,image-keyboard-response,194,526116,0.0-7.0-4.0-0.20,3,Study 3,Session 3,NA,469,img/testing_events/Cb/Test_Cb_Event_4.jpg,n,response,e,NA,FALSE,Cb
NA,NA,NA,NA,NA,image-keyboard-response,195,526422,0.0-7.0-4.0-0.21,3,Study 3,Session 3,NA,306,img/testing_events/Cb/Test_Cb_Event_13.jpg,c,response,u,NA,FALSE,Cb
NA,NA,NA,NA,NA,image-keyboard-response,196,526909,0.0-7.0-4.0-0.22,3,Study 3,Session 3,NA,485,img/testing_events/Cb/Test_Cb_Event_24.jpg,u,response,e,NA,FALSE,Cb
NA,NA,NA,NA,NA,image-keyboard-response,197,528039,0.0-7.0-4.0-0.23,3,Study 3,Session 3,NA,1129,img/testing_events/Cb/Test_Cb_Event_14.jpg,n,response,c,NA,FALSE,Cb
NA,NA,NA,NA,NA,image-keyboard-response,198,530611,0.0-7.0-5.0-0.0,3,Study 3,Session 3,NA,2572,img/testing_events/Ac/Test_Ac_Event_15.jpg,e,response,n,NA,FALSE,Ac
NA,NA,NA,NA,NA,image-keyboard-response,199,531451,0.0-7.0-5.0-0.1,3,Study 3,Session 3,NA,839,img/testing_events/Ac/Test_Ac_Event_1.jpg,n,response,u,NA,FALSE,Ac
NA,NA,NA,NA,NA,image-keyboard-response,200,531969,0.0-7.0-5.0-0.2,3,Study 3,Session 3,NA,517,img/testing_events/Ac/Test_Ac_Event_12.jpg,c,response,e,NA,FALSE,Ac
NA,NA,NA,NA,NA,image-keyboard-response,201,532866,0.0-7.0-5.0-0.3,3,Study 3,Session 3,NA,896,img/testing_events/Ac/Test_Ac_Event_8.jpg,u,response,e,NA,FALSE,Ac
NA,NA,NA,NA,NA,image-keyboard-response,202,533769,0.0-7.0-5.0-0.4,3,Study 3,Session 3,NA,902,img/testing_events/Ac/Test_Ac_Event_21.jpg,c,response,u,NA,FALSE,Ac
NA,NA,NA,NA,NA,image-keyboard-response,203,535280,0.0-7.0-5.0-0.5,3,Study 3,Session 3,NA,1510,img/testing_events/Ac/Test_Ac_Event_18.jpg,e,response,c,NA,FALSE,Ac
NA,NA,NA,NA,NA,image-keyboard-response,204,536541,0.0-7.0-5.0-0.6,3,Study 3,Session 3,NA,1260,img/testing_events/Ac/Test_Ac_Event_9.jpg,u,response,u,NA,TRUE,Ac
NA,NA,NA,NA,NA,image-keyboard-response,205,538176,0.0-7.0-5.0-0.7,3,Study 3,Session 3,NA,1633,img/testing_events/Ac/Test_Ac_Event_24.jpg,c,response,e,NA,FALSE,Ac
NA,NA,NA,NA,NA,image-keyboard-response,206,539168,0.0-7.0-5.0-0.8,3,Study 3,Session 3,NA,990,img/testing_events/Ac/Test_Ac_Event_10.jpg,u,response,c,NA,FALSE,Ac
NA,NA,NA,NA,NA,image-keyboard-response,207,539741,0.0-7.0-5.0-0.9,3,Study 3,Session 3,NA,572,img/testing_events/Ac/Test_Ac_Event_19.jpg,n,response,n,NA,TRUE,Ac
NA,NA,NA,NA,NA,image-keyboard-response,208,540313,0.0-7.0-5.0-0.10,3,Study 3,Session 3,NA,571,img/testing_events/Ac/Test_Ac_Event_3.jpg,e,response,n,NA,FALSE,Ac
NA,NA,NA,NA,NA,image-keyboard-response,209,540878,0.0-7.0-5.0-0.11,3,Study 3,Session 3,NA,564,img/testing_events/Ac/Test_Ac_Event_14.jpg,c,response,c,NA,TRUE,Ac
NA,NA,NA,NA,NA,image-keyboard-response,210,541405,0.0-7.0-5.0-0.12,3,Study 3,Session 3,NA,527,img/testing_events/Ac/Test_Ac_Event_2.jpg,u,response,c,NA,FALSE,Ac
NA,NA,NA,NA,NA,image-keyboard-response,211,541894,0.0-7.0-5.0-0.13,3,Study 3,Session 3,NA,488,img/testing_events/Ac/Test_Ac_Event_4.jpg,e,response,e,NA,TRUE,Ac
NA,NA,NA,NA,NA,image-keyboard-response,212,542424,0.0-7.0-5.0-0.14,3,Study 3,Session 3,NA,530,img/testing_events/Ac/Test_Ac_Event_6.jpg,n,response,c,NA,FALSE,Ac
NA,NA,NA,NA,NA,image-keyboard-response,213,543329,0.0-7.0-5.0-0.15,3,Study 3,Session 3,NA,905,img/testing_events/Ac/Test_Ac_Event_20.jpg,u,response,e,NA,FALSE,Ac
NA,NA,NA,NA,NA,image-keyboard-response,214,543974,0.0-7.0-5.0-0.16,3,Study 3,Session 3,NA,644,img/testing_events/Ac/Test_Ac_Event_13.jpg,c,response,u,NA,FALSE,Ac
NA,NA,NA,NA,NA,image-keyboard-response,215,544622,0.0-7.0-5.0-0.17,3,Study 3,Session 3,NA,648,img/testing_events/Ac/Test_Ac_Event_23.jpg,e,response,n,NA,FALSE,Ac
NA,NA,NA,NA,NA,image-keyboard-response,216,545387,0.0-7.0-5.0-0.18,3,Study 3,Session 3,NA,764,img/testing_events/Ac/Test_Ac_Event_11.jpg,c,response,n,NA,FALSE,Ac
NA,NA,NA,NA,NA,image-keyboard-response,217,546227,0.0-7.0-5.0-0.19,3,Study 3,Session 3,NA,839,img/testing_events/Ac/Test_Ac_Event_7.jpg,u,response,n,NA,FALSE,Ac
NA,NA,NA,NA,NA,image-keyboard-response,218,547064,0.0-7.0-5.0-0.20,3,Study 3,Session 3,NA,836,img/testing_events/Ac/Test_Ac_Event_17.jpg,n,response,u,NA,FALSE,Ac
NA,NA,NA,NA,NA,image-keyboard-response,219,547562,0.0-7.0-5.0-0.21,3,Study 3,Session 3,NA,497,img/testing_events/Ac/Test_Ac_Event_16.jpg,e,response,e,NA,TRUE,Ac
NA,NA,NA,NA,NA,image-keyboard-response,220,548235,0.0-7.0-5.0-0.22,3,Study 3,Session 3,NA,673,img/testing_events/Ac/Test_Ac_Event_22.jpg,c,response,c,NA,TRUE,Ac
NA,NA,NA,NA,NA,image-keyboard-response,221,548787,0.0-7.0-5.0-0.23,3,Study 3,Session 3,NA,552,img/testing_events/Ac/Test_Ac_Event_5.jpg,c,response,u,NA,FALSE,Ac
NA,NA,NA,NA,NA,survey-text,222,559162,0.0-8.0,3,Study 3,Session 3,NA,10369,NA,"{""Q0"":""No"",""Q1"":""No"",""Q2"":""No""}",NA,NA,NA,NA,NA
NA,NA,NA,NA,NA,survey-html-form,223,576498,0.0-9.0,3,Study 3,Session 3,NA,17335,NA,"{""Gender"":""Male"",""Age"":""28"",""ColorBlind"":""No"",""Education"":""Graduate degree (Masters, Doctorate, etc.)"",""Income"":""$0-$24,999"",""Race"":""White"",""Fluent"":""Yes"",""AgeEnglish"":""0"",""Country"":""United States""}",NA,NA,NA,NA,NA
TRUE,NA,NA,NA,NA,fullscreen,224,576499,0.0-10.0,3,Study 3,Session 3,NA,NA,NA,NA,NA,NA,NA,NA,NA
