success,timeout,failed_images,failed_audio,failed_video,trial_type,trial_index,time_elapsed,internal_node_id,subject_id,study_id,session_id,view_history,rt,stimulus,response,task,correct_response,attention_duration,correct,retrieval_group
TRUE,FALSE,[],[],[],preload,0,1096,0.0-0.0,43,Study 43,Session 43,NA,NA,NA,NA,NA,NA,NA,NA,NA
TRUE,NA,NA,NA,NA,fullscreen,1,3200,0.0-1.0,43,Study 43,Session 43,NA,NA,NA,NA,NA,NA,NA,NA,NA
NA,NA,NA,NA,NA,instructions,2,5069,0.0-2.0,43,Study 43,Session 43,"[{""page_index"":0,""viewing_time"":1866}]",1866,NA,NA,NA,NA,NA,NA,NA
NA,NA,NA,NA,NA,html-keyboard-response,3,8215,0.0-3.0,43,Study 43,Session 43,NA,3143,"Welcome to the experiment. <br /><br />This experiment will take about 20 minutes. Please complete all in one sitting. <br /><br />For this study, <strong>please use</strong> a laptop or desktop computer (not a mobile phone or tablet). Also, please use either <u>Chrome or Firefox</u>. <br /><br />Once you begin, <strong>DO NOT</strong> refresh the browser, as the experiment will reset and you will lose your progress. <br /><br />Press the <strong class=""upperline"">B</strong> key on your keyboard to begin.",b,NA,NA,NA,NA,NA
NA,NA,NA,NA,NA,instructions,4,158490,0.0-4.0,43,Study 43,Session 43,"[{""page_index"":0,""viewing_time"":94567},{""page_index"":1,""viewing_time"":7039},{""page_index"":2,""viewing_time"":47659}]",149265,NA,NA,NA,NA,NA,NA,NA
NA,NA,NA,NA,NA,html-keyboard-response,5,161502,0.0-5.0-0.0,43,Study 43,Session 43,NA,null,"<div style=""font-size:60px;"">+</div>",null,fixation,NA,NA,NA,NA
NA,NA,NA,NA,NA,image-keyboard-response,6,167732,0.0-5.0-1.0,43,Study 43,Session 43,NA,null,img/encoding_events/Event_3.jpg,null,NA,NA,NA,NA,NA
NA,NA,NA,NA,NA,html-keyboard-response,7,167734,0.0-5.0-2.0,43,Study 43,Session 43,NA,null,Please press the <strong><u>d</u></strong> key to continue,null,response,d,0,FALSE,NA
NA,NA,NA,NA,NA,html-keyboard-response,8,168239,0.0-5.0-0.1,43,Study 43,Session 43,NA,null,"<div style=""font-size:60px;"">+</div>",null,fixation,NA,NA,NA,NA
NA,NA,NA,NA,NA,image-keyboard-response,9,174440,0.0-5.0-1.1,43,Study 43,Session 43,NA,null,img/encoding_events/Event_19.jpg,null,NA,NA,NA,NA,NA
NA,NA,NA,NA,NA,html-keyboard-response,10,174445,0.0-5.0-2.1,43,Study 43,Session 43,NA,null,Please press the <strong><u>s</u></strong> key to continue,null,response,s,0,FALSE,NA
NA,NA,NA,NA,NA,html-keyboard-response,11,174950,0.0-5.0-0.2,43,Study 43,Session 43,NA,null,"<div style=""font-size:60px;"">+</div>",null,fixation,NA,NA,NA,NA
NA,NA,NA,NA,NA,image-keyboard-response,12,181277,0.0-5.0-1.2,43,Study 43,Session 43,NA,null,img/encoding_events/Event_17.jpg,null,NA,NA,NA,NA,NA
NA,NA,NA,NA,NA,html-keyboard-response,13,181284,0.0-5.0-2.2,43,Study 43,Session 43,NA,null,Please press the <strong><u>s</u></strong> key to continue,null,response,s,0,FALSE,NA
NA,NA,NA,NA,NA,html-keyboard-response,14,181787,0.0-5.0-0.3,43,Study 43,Session 43,NA,null,"<div style=""font-size:60px;"">+</div>",null,fixation,NA,NA,NA,NA
NA,NA,NA,NA,NA,image-keyboard-response,15,187844,0.0-5.0-1.3,43,Study 43,Session 43,NA,null,img/encoding_events/Event_18.jpg,null,NA,NA,NA,NA,NA
NA,NA,NA,NA,NA,html-keyboard-response,16,189560,0.0-5.0-2.3,43,Study 43,Session 43,NA,1714,Please press the <strong><u>s</u></strong> key to continue,s,response,s,6000,TRUE,NA
NA,NA,NA,NA,NA,html-keyboard-response,17,190064,0.0-5.0-0.4,43,Study 43,Session 43,NA,null,"<div style=""font-size:60px;"">+</div>",null,fixation,NA,NA,NA,NA
NA,NA,NA,NA,NA,image-keyboard-response,18,196395,0.0-5.0-1.4,43,Study 43,Session 43,NA,null,img/encoding_events/Event_20.jpg,null,NA,NA,NA,NA,NA
NA,NA,NA,NA,NA,html-keyboard-response,19,196395,0.0-5.0-2.4,43,Study 43,Session 43,NA,null,Please press the <strong><u>k</u></strong> key to continue,null,response,k,0,FALSE,NA
NA,NA,NA,NA,NA,html-keyboard-response,20,196899,0.0-5.0-0.5,43,Study 43,Session 43,NA,null,"<div style=""font-size:60px;"">+</div>",null,fixation,NA,NA,NA,NA
NA,NA,NA,NA,NA,image-keyboard-response,21,202988,0.0-5.0-1.5,43,Study 43,Session 43,NA,null,img/encoding_events/Event_1.jpg,null,NA,NA,NA,NA,NA
NA,NA,NA,NA,NA,html-keyboard-response,22,202994,0.0-5.0-2.5,43,Study 43,Session 43,NA,null,Please press the <strong><u>d</u></strong> key to continue,null,response,d,0,FALSE,NA
NA,NA,NA,NA,NA,html-keyboard-response,23,203495,0.0-5.0-0.6,43,Study 43,Session 43,NA,null,"<div style=""font-size:60px;"">+</div>",null,fixation,NA,NA,NA,NA
NA,NA,NA,NA,NA,image-keyboard-response,24,209543,0.0-5.0-1.6,43,Study 43,Session 43,NA,null,img/encoding_events/Event_22.jpg,null,NA,NA,NA,NA,NA
NA,NA,NA,NA,NA,html-keyboard-response,25,209549,0.0-5.0-2.6,43,Study 43,Session 43,NA,null,Please press the <strong><u>k</u></strong> key to continue,null,response,k,0,FALSE,NA
NA,NA,NA,NA,NA,html-keyboard-response,26,210053,0.0-5.0-0.7,43,Study 43,Session 43,NA,null,"<div style=""font-size:60px;"">+</div>",null,fixation,NA,NA,NA,NA
NA,NA,NA,NA,NA,image-keyboard-response,27,216108,0.0-5.0-1.7,43,Study 43,Session 43,NA,null,img/encoding_events/Event_2.jpg,null,NA,NA,NA,NA,NA
NA,NA,NA,NA,NA,html-keyboard-response,28,217584,0.0-5.0-2.7,43,Study 43,Session 43,NA,1475,Please press the <strong><u>k</u></strong> key to continue,k,response,k,6000,TRUE,NA
NA,NA,NA,NA,NA,html-keyboard-response,29,218085,0.0-5.0-0.8,43,Study 43,Session 43,NA,null,"<div style=""font-size:60px;"">+</div>",null,fixation,NA,NA,NA,NA
NA,NA,NA,NA,NA,image-keyboard-response,30,224101,0.0-5.0-1.8,43,Study 43,Session 43,NA,null,img/encoding_events/Event_4.jpg,null,NA,NA,NA,NA,NA
NA,NA,NA,NA,NA,html-keyboard-response,31,224102,0.0-5.0-2.8,43,Study 43,Session 43,NA,null,Please press the <strong><u>d</u></strong> key to continue,null,response,d,0,FALSE,NA
NA,NA,NA,NA,NA,html-keyboard-response,32,224604,0.0-5.0-0.9,43,Study 43,Session 43,NA,null,"<div style=""font-size:60px;"">+</div>",null,fixation,NA,NA,NA,NA
NA,NA,NA,NA,NA,image-keyboard-response,33,231112,0.0-5.0-1.9,43,Study 43,Session 43,NA,null,img/encoding_events/Event_21.jpg,null,NA,NA,NA,NA,NA
NA,NA,NA,NA,NA,html-keyboard-response,34,231116,0.0-5.0-2.9,43,Study 43,Session 43,NA,null,Please press the <strong><u>f</u></strong> key to continue,null,response,f,0,FALSE,NA
NA,NA,NA,NA,NA,html-keyboard-response,35,231622,0.0-5.0-0.10,43,Study 43,Session 43,NA,null,"<div style=""font-size:60px;"">+</div>",null,fixation,NA,NA,NA,NA
NA,NA,NA,NA,NA,image-keyboard-response,36,237732,0.0-5.0-1.10,43,Study 43,Session 43,NA,null,img/encoding_events/Event_23.jpg,null,NA,NA,NA,NA,NA
NA,NA,NA,NA,NA,html-keyboard-response,37,237739,0.0-5.0-2.10,43,Study 43,Session 43,NA,null,Please press the <strong><u>a</u></strong> key to continue,null,response,a,0,FALSE,NA
NA,NA,NA,NA,NA,html-keyboard-response,38,238241,0.0-5.0-0.11,43,Study 43,Session 43,NA,null,"<div style=""font-size:60px;"">+</div>",null,fixation,NA,NA,NA,NA
NA,NA,NA,NA,NA,image-keyboard-response,39,244296,0.0-5.0-1.11,43,Study 43,Session 43,NA,null,img/encoding_events/Event_5.jpg,null,NA,NA,NA,NA,NA
NA,NA,NA,NA,NA,html-keyboard-response,40,245598,0.0-5.0-2.11,43,Study 43,Session 43,NA,1301,Please press the <strong><u>f</u></strong> key to continue,f,response,f,6000,TRUE,NA
NA,NA,NA,NA,NA,html-keyboard-response,41,246103,0.0-5.0-0.12,43,Study 43,Session 43,NA,null,"<div style=""font-size:60px;"">+</div>",null,fixation,NA,NA,NA,NA
NA,NA,NA,NA,NA,image-keyboard-response,42,252446,0.0-5.0-1.12,43,Study 43,Session 43,NA,null,img/encoding_events/Event_7.jpg,null,NA,NA,NA,NA,NA
NA,NA,NA,NA,NA,html-keyboard-response,43,252447,0.0-5.0-2.12,43,Study 43,Session 43,NA,null,Please press the <strong><u>k</u></strong> key to continue,null,response,k,0,FALSE,NA
NA,NA,NA,NA,NA,html-keyboard-response,44,252951,0.0-5.0-0.13,43,Study 43,Session 43,NA,null,"<div style=""font-size:60px;"">+</div>",null,fixation,NA,NA,NA,NA
NA,NA,NA,NA,NA,image-keyboard-response,45,258977,0.0-5.0-1.13,43,Study 43,Session 43,NA,null,img/encoding_events/Event_24.jpg,null,NA,NA,NA,NA,NA
NA,NA,NA,NA,NA,html-keyboard-response,46,258983,0.0-5.0-2.13,43,Study 43,Session 43,NA,null,Please press the <strong><u>f</u></strong> key to continue,null,response,f,0,FALSE,NA
NA,NA,NA,NA,NA,html-keyboard-response,47,259485,0.0-5.0-0.14,43,Study 43,Session 43,NA,null,"<div style=""font-size:60px;"">+</div>",null,fixation,NA,NA,NA,NA
NA,NA,NA,NA,NA,image-keyboard-response,48,265679,0.0-5.0-1.14,43,Study 43,Session 43,NA,null,img/encoding_events/Event_8.jpg,null,NA,NA,NA,NA,NA
NA,NA,NA,NA,NA,html-keyboard-response,49,265684,0.0-5.0-2.14,43,Study 43,Session 43,NA,null,Please press the <strong><u>a</u></strong> key to continue,null,response,a,0,FALSE,NA
NA,NA,NA,NA,NA,html-keyboard-response,50,266190,0.0-5.0-0.15,43,Study 43,Session 43,NA,null,"<div style=""font-size:60px;"">+</div>",null,fixation,NA,NA,NA,NA
NA,NA,NA,NA,NA,image-keyboard-response,51,272346,0.0-5.0-1.15,43,Study 43,Session 43,NA,null,img/encoding_events/Event_6.jpg,null,NA,NA,NA,NA,NA
NA,NA,NA,NA,NA,html-keyboard-response,52,273634,0.0-5.0-2.15,43,Study 43,Session 43,NA,1287,Please press the <strong><u>d</u></strong> key to continue,d,response,d,6000,TRUE,NA
NA,NA,NA,NA,NA,html-keyboard-response,53,274137,0.0-5.0-0.16,43,Study 43,Session 43,NA,null,"<div style=""font-size:60px;"">+</div>",null,fixation,NA,NA,NA,NA
NA,NA,NA,NA,NA,image-keyboard-response,54,280288,0.0-5.0-1.16,43,Study 43,Session 43,NA,null,img/encoding_events/Event_9.jpg,null,NA,NA,NA,NA,NA
NA,NA,NA,NA,NA,html-keyboard-response,55,280288,0.0-5.0-2.16,43,Study 43,Session 43,NA,null,Please press the <strong><u>f</u></strong> key to continue,null,response,f,0,FALSE,NA
NA,NA,NA,NA,NA,html-keyboard-response,56,280789,0.0-5.0-0.17,43,Study 43,Session 43,NA,null,"<div style=""font-size:60px;"">+</div>",null,fixation,NA,NA,NA,NA
NA,NA,NA,NA,NA,image-keyboard-response,57,286962,0.0-5.0-1.17,43,Study 43,Session 43,NA,null,img/encoding_events/Event_10.jpg,null,NA,NA,NA,NA,NA
NA,NA,NA,NA,NA,html-keyboard-response,58,286970,0.0-5.0-2.17,43,Study 43,Session 43,NA,null,Please press the <strong><u>d</u></strong> key to continue,null,response,d,0,FALSE,NA
NA,NA,NA,NA,NA,html-keyboard-response,59,287474,0.0-5.0-0.18,43,Study 43,Session 43,NA,null,"<div style=""font-size:60px;"">+</div>",null,fixation,NA,NA,NA,NA
NA,NA,NA,NA,NA,image-keyboard-response,60,293863,0.0-5.0-1.18,43,Study 43,Session 43,NA,null,img/encoding_events/Event_13.jpg,null,NA,NA,NA,NA,NA
NA,NA,NA,NA,NA,html-keyboard-response,61,293868,0.0-5.0-2.18,43,Study 43,Session 43,NA,null,Please press the <strong><u>d</u></strong> key to continue,null,response,d,0,FALSE,NA
NA,NA,NA,NA,NA,html-keyboard-response,62,294369,0.0-5.0-0.19,43,Study 43,Session 43,NA,null,"<div style=""font-size:60px;"">+</div>",null,fixation,NA,NA,NA,NA
NA,NA,NA,NA,NA,image-keyboard-response,63,300680,0.0-5.0-1.19,43,Study 43,Session 43,NA,null,img/encoding_events/Event_14.jpg,null,NA,NA,NA,NA,NA
NA,NA,NA,NA,NA,html-keyboard-response,64,302050,0.0-5.0-2.19,43,Study 43,Session 43,NA,1369,Please press the <strong><u>j</u></strong> key to continue,j,response,j,6000,TRUE,NA
NA,NA,NA,NA,NA,html-keyboard-response,65,302556,0.0-5.0-0.20,43,Study 43,Session 43,NA,null,"<div style=""font-size:60px;"">+</div>",null,fixation,NA,NA,NA,NA
NA,NA,NA,NA,NA,image-keyboard-response,66,308931,0.0-5.0-1.20,43,Study 43,Session 43,NA,null,img/encoding_events/Event_15.jpg,null,NA,NA,NA,NA,NA
NA,NA,NA,NA,NA,html-keyboard-response,67,308932,0.0-5.0-2.20,43,Study 43,Session 43,NA,null,Please press the <strong><u>a</u></strong> key to continue,null,response,a,0,FALSE,NA
NA,NA,NA,NA,NA,html-keyboard-response,68,309436,0.0-5.0-0.21,43,Study 43,Session 43,NA,null,"<div style=""font-size:60px;"">+</div>",null,fixation,NA,NA,NA,NA
NA,NA,NA,NA,NA,image-keyboard-response,69,315646,0.0-5.0-1.21,43,Study 43,Session 43,NA,null,img/encoding_events/Event_11.jpg,null,NA,NA,NA,NA,NA
NA,NA,NA,NA,NA,html-keyboard-response,70,315651,0.0-5.0-2.21,43,Study 43,Session 43,NA,null,Please press the <strong><u>f</u></strong> key to continue,null,response,f,0,FALSE,NA
NA,NA,NA,NA,NA,html-keyboard-response,71,316153,0.0-5.0-0.22,43,Study 43,Session 43,NA,null,"<div style=""font-size:60px;"">+</div>",null,fixation,NA,NA,NA,NA
NA,NA,NA,NA,NA,image-keyboard-response,72,322595,0.0-5.0-1.22,43,Study 43,Session 43,NA,null,img/encoding_events/Event_16.jpg,null,NA,NA,NA,NA,NA
NA,NA,NA,NA,NA,html-keyboard-response,73,322602,0.0-5.0-2.22,43,Study 43,Session 43,NA,null,Please press the <strong><u>j</u></strong> key to continue,null,response,j,0,FALSE,NA
NA,NA,NA,NA,NA,html-keyboard-response,74,323103,0.0-5.0-0.23,43,Study 43,Session 43,NA,null,"<div style=""font-size:60px;"">+</div>",null,fixation,NA,NA,NA,NA
NA,NA,NA,NA,NA,image-keyboard-response,75,329164,0.0-5.0-1.23,43,Study 43,Session 43,NA,null,img/encoding_events/Event_12.jpg,null,NA,NA,NA,NA,NA
NA,NA,NA,NA,NA,html-keyboard-response,76,330364,0.0-5.0-2.23,43,Study 43,Session 43,NA,1199,Please press the <strong><u>d</u></strong> key to continue,d,response,d,6000,TRUE,NA
NA,NA,NA,NA,NA,instructions,77,368791,0.0-6.0,43,Study 43,Session 43,"[{""page_index"":0,""viewing_time"":1892},{""page_index"":1,""viewing_time"":4238},{""page_index"":2,""viewing_time"":6398},{""page_index"":3,""viewing_time"":16291},{""page_index"":4,""viewing_time"":3621},{""page_index"":5,""viewing_time"":4888},{""page_index"":6,""viewing_time"":1097}]",38425,NA,NA,NA,NA,NA,NA,NA
NA,NA,NA,NA,NA,image-keyboard-response,78,377451,0.0-7.0-0.0-0.0,43,Study 43,Session 43,NA,5956,img/testing_events/Cb/Test_Cb_Event_14.jpg,c,response,c,NA,TRUE,Cb
NA,NA,NA,NA,NA,image-keyboard-response,79,378989,0.0-7.0-0.0-0.1,43,Study 43,Session 43,NA,1528,img/testing_events/Cb/Test_Cb_Event_22.jpg,c,response,c,NA,TRUE,Cb
NA,NA,NA,NA,NA,image-keyboard-response,80,385478,0.0-7.0-0.0-0.2,43,Study 43,Session 43,NA,6477,img/testing_events/Cb/Test_Cb_Event_23.jpg,n,response,n,NA,TRUE,Cb
NA,NA,NA,NA,NA,image-keyboard-response,81,400274,0.0-7.0-0.0-0.3,43,Study 43,Session 43,NA,14787,img/testing_events/Cb/Test_Cb_Event_21.jpg,u,response,u,NA,TRUE,Cb
NA,NA,NA,NA,NA,image-keyboard-response,82,402757,0.0-7.0-0.0-0.4,43,Study 43,Session 43,NA,2476,img/testing_events/Cb/Test_Cb_Event_20.jpg,c,response,e,NA,FALSE,Cb
NA,NA,NA,NA,NA,image-keyboard-response,83,407255,0.0-7.0-0.0-0.5,43,Study 43,Session 43,NA,4485,img/testing_events/Cb/Test_Cb_Event_1.jpg,u,response,u,NA,TRUE,Cb
NA,NA,NA,NA,NA,image-keyboard-response,84,410132,0.0-7.0-0.0-0.6,43,Study 43,Session 43,NA,2867,img/testing_events/Cb/Test_Cb_Event_24.jpg,e,response,e,NA,TRUE,Cb
NA,NA,NA,NA,NA,image-keyboard-response,85,412367,0.0-7.0-0.0-0.7,43,Study 43,Session 43,NA,2224,img/testing_events/Cb/Test_Cb_Event_15.jpg,n,response,n,NA,TRUE,Cb
NA,NA,NA,NA,NA,image-keyboard-response,86,418430,0.0-7.0-0.0-0.8,43,Study 43,Session 43,NA,6052,img/testing_events/Cb/Test_Cb_Event_4.jpg,e,response,e,NA,TRUE,Cb
NA,NA,NA,NA,NA,image-keyboard-response,87,420756,0.0-7.0-0.0-0.9,43,Study 43,Session 43,NA,2316,img/testing_events/Cb/Test_Cb_Event_16.jpg,e,response,e,NA,TRUE,Cb
NA,NA,NA,NA,NA,image-keyboard-response,88,424843,0.0-7.0-0.0-0.10,43,Study 43,Session 43,NA,4074,img/testing_events/Cb/Test_Cb_Event_9.jpg,u,response,u,NA,TRUE,Cb
NA,NA,NA,NA,NA,image-keyboard-response,89,433789,0.0-7.0-0.0-0.11,43,Study 43,Session 43,NA,8936,img/testing_events/Cb/Test_Cb_Event_11.jpg,n,response,n,NA,TRUE,Cb
NA,NA,NA,NA,NA,image-keyboard-response,90,436972,0.0-7.0-0.0-0.12,43,Study 43,Session 43,NA,3173,img/testing_events/Cb/Test_Cb_Event_3.jpg,c,response,n,NA,FALSE,Cb
NA,NA,NA,NA,NA,image-keyboard-response,91,442869,0.0-7.0-0.0-0.13,43,Study 43,Session 43,NA,5886,img/testing_events/Cb/Test_Cb_Event_17.jpg,e,response,u,NA,FALSE,Cb
NA,NA,NA,NA,NA,image-keyboard-response,92,444760,0.0-7.0-0.0-0.14,43,Study 43,Session 43,NA,1880,img/testing_events/Cb/Test_Cb_Event_5.jpg,u,response,u,NA,TRUE,Cb
NA,NA,NA,NA,NA,image-keyboard-response,93,447563,0.0-7.0-0.0-0.15,43,Study 43,Session 43,NA,2792,img/testing_events/Cb/Test_Cb_Event_13.jpg,u,response,u,NA,TRUE,Cb
NA,NA,NA,NA,NA,image-keyboard-response,94,451348,0.0-7.0-0.0-0.16,43,Study 43,Session 43,NA,3776,img/testing_events/Cb/Test_Cb_Event_10.jpg,c,response,c,NA,TRUE,Cb
NA,NA,NA,NA,NA,image-keyboard-response,95,453789,0.0-7.0-0.0-0.17,43,Study 43,Session 43,NA,2430,img/testing_events/Cb/Test_Cb_Event_6.jpg,c,response,c,NA,TRUE,Cb
NA,NA,NA,NA,NA,image-keyboard-response,96,455201,0.0-7.0-0.0-0.18,43,Study 43,Session 43,NA,1401,img/testing_events/Cb/Test_Cb_Event_12.jpg,e,response,e,NA,TRUE,Cb
NA,NA,NA,NA,NA,image-keyboard-response,97,460578,0.0-7.0-0.0-0.19,43,Study 43,Session 43,NA,5365,img/testing_events/Cb/Test_Cb_Event_19.jpg,u,response,n,NA,FALSE,Cb
NA,NA,NA,NA,NA,image-keyboard-response,98,465646,0.0-7.0-0.0-0.20,43,Study 43,Session 43,NA,5058,img/testing_events/Cb/Test_Cb_Event_7.jpg,n,response,n,NA,TRUE,Cb
NA,NA,NA,NA,NA,image-keyboard-response,99,470603,0.0-7.0-0.0-0.21,43,Study 43,Session 43,NA,4948,img/testing_events/Cb/Test_Cb_Event_18.jpg,c,response,c,NA,TRUE,Cb
NA,NA,NA,NA,NA,image-keyboard-response,100,472283,0.0-7.0-0.0-0.22,43,Study 43,Session 43,NA,1669,img/testing_events/Cb/Test_Cb_Event_8.jpg,e,response,e,NA,TRUE,Cb
NA,NA,NA,NA,NA,image-keyboard-response,101,475078,0.0-7.0-0.0-0.23,43,Study 43,Session 43,NA,2786,img/testing_events/Cb/Test_Cb_Event_2.jpg,c,response,c,NA,TRUE,Cb
NA,NA,NA,NA,NA,image-keyboard-response,102,481257,0.0-7.0-1.0-0.0,43,Study 43,Session 43,NA,6168,img/testing_events/Ca/Test_Ca_Event_19.jpg,c,response,c,NA,TRUE,Ca
NA,NA,NA,NA,NA,image-keyboard-response,103,483789,0.0-7.0-1.0-0.1,43,Study 43,Session 43,NA,2522,img/testing_events/Ca/Test_Ca_Event_22.jpg,u,response,u,NA,TRUE,Ca
NA,NA,NA,NA,NA,image-keyboard-response,104,489282,0.0-7.0-1.0-0.2,43,Study 43,Session 43,NA,5483,img/testing_events/Ca/Test_Ca_Event_10.jpg,c,response,u,NA,FALSE,Ca
NA,NA,NA,NA,NA,image-keyboard-response,105,490608,0.0-7.0-1.0-0.3,43,Study 43,Session 43,NA,1314,img/testing_events/Ca/Test_Ca_Event_5.jpg,e,response,e,NA,TRUE,Ca
NA,NA,NA,NA,NA,image-keyboard-response,106,497180,0.0-7.0-1.0-0.4,43,Study 43,Session 43,NA,6561,img/testing_events/Ca/Test_Ca_Event_2.jpg,u,response,u,NA,TRUE,Ca
NA,NA,NA,NA,NA,image-keyboard-response,107,506056,0.0-7.0-1.0-0.5,43,Study 43,Session 43,NA,8865,img/testing_events/Ca/Test_Ca_Event_20.jpg,c,response,n,NA,FALSE,Ca
NA,NA,NA,NA,NA,image-keyboard-response,108,507977,0.0-7.0-1.0-0.6,43,Study 43,Session 43,NA,1910,img/testing_events/Ca/Test_Ca_Event_8.jpg,n,response,n,NA,TRUE,Ca
NA,NA,NA,NA,NA,image-keyboard-response,109,511025,0.0-7.0-1.0-0.7,43,Study 43,Session 43,NA,3037,img/testing_events/Ca/Test_Ca_Event_16.jpg,n,response,n,NA,TRUE,Ca
NA,NA,NA,NA,NA,image-keyboard-response,110,514133,0.0-7.0-1.0-0.8,43,Study 43,Session 43,NA,3098,img/testing_events/Ca/Test_Ca_Event_1.jpg,e,response,e,NA,TRUE,Ca
NA,NA,NA,NA,NA,image-keyboard-response,111,516762,0.0-7.0-1.0-0.9,43,Study 43,Session 43,NA,2617,img/testing_events/Ca/Test_Ca_Event_4.jpg,n,response,n,NA,TRUE,Ca
NA,NA,NA,NA,NA,image-keyboard-response,112,519461,0.0-7.0-1.0-0.10,43,Study 43,Session 43,NA,2687,img/testing_events/Ca/Test_Ca_Event_6.jpg,u,response,u,NA,TRUE,Ca
NA,NA,NA,NA,NA,image-keyboard-response,113,521163,0.0-7.0-1.0-0.11,43,Study 43,Session 43,NA,1690,img/testing_events/Ca/Test_Ca_Event_11.jpg,c,response,c,NA,TRUE,Ca
NA,NA,NA,NA,NA,image-keyboard-response,114,522980,0.0-7.0-1.0-0.12,43,Study 43,Session 43,NA,1805,img/testing_events/Ca/Test_Ca_Event_15.jpg,c,response,c,NA,TRUE,Ca
NA,NA,NA,NA,NA,image-keyboard-response,115,526963,0.0-7.0-1.0-0.13,43,Study 43,Session 43,NA,3973,img/testing_events/Ca/Test_Ca_Event_18.jpg,u,response,u,NA,TRUE,Ca
NA,NA,NA,NA,NA,image-keyboard-response,116,531172,0.0-7.0-1.0-0.14,43,Study 43,Session 43,NA,4198,img/testing_events/Ca/Test_Ca_Event_9.jpg,e,response,e,NA,TRUE,Ca
NA,NA,NA,NA,NA,image-keyboard-response,117,533725,0.0-7.0-1.0-0.15,43,Study 43,Session 43,NA,2545,img/testing_events/Ca/Test_Ca_Event_17.jpg,e,response,e,NA,TRUE,Ca
NA,NA,NA,NA,NA,image-keyboard-response,118,537373,0.0-7.0-1.0-0.16,43,Study 43,Session 43,NA,3636,img/testing_events/Ca/Test_Ca_Event_7.jpg,c,response,c,NA,TRUE,Ca
NA,NA,NA,NA,NA,image-keyboard-response,119,540612,0.0-7.0-1.0-0.17,43,Study 43,Session 43,NA,3229,img/testing_events/Ca/Test_Ca_Event_24.jpg,n,response,n,NA,TRUE,Ca
NA,NA,NA,NA,NA,image-keyboard-response,120,542734,0.0-7.0-1.0-0.18,43,Study 43,Session 43,NA,2111,img/testing_events/Ca/Test_Ca_Event_13.jpg,e,response,e,NA,TRUE,Ca
NA,NA,NA,NA,NA,image-keyboard-response,121,544725,0.0-7.0-1.0-0.19,43,Study 43,Session 43,NA,1980,img/testing_events/Ca/Test_Ca_Event_14.jpg,u,response,u,NA,TRUE,Ca
NA,NA,NA,NA,NA,image-keyboard-response,122,546962,0.0-7.0-1.0-0.20,43,Study 43,Session 43,NA,2225,img/testing_events/Ca/Test_Ca_Event_12.jpg,n,response,n,NA,TRUE,Ca
NA,NA,NA,NA,NA,image-keyboard-response,123,548845,0.0-7.0-1.0-0.21,43,Study 43,Session 43,NA,1872,img/testing_events/Ca/Test_Ca_Event_21.jpg,e,response,e,NA,TRUE,Ca
NA,NA,NA,NA,NA,image-keyboard-response,124,555866,0.0-7.0-1.0-0.22,43,Study 43,Session 43,NA,7009,img/testing_events/Ca/Test_Ca_Event_3.jpg,u,response,c,NA,FALSE,Ca
NA,NA,NA,NA,NA,image-keyboard-response,125,560243,0.0-7.0-1.0-0.23,43,Study 43,Session 43,NA,4367,img/testing_events/Ca/Test_Ca_Event_23.jpg,c,response,c,NA,TRUE,Ca
NA,NA,NA,NA,NA,image-keyboard-response,126,562207,0.0-7.0-2.0-0.0,43,Study 43,Session 43,NA,1956,img/testing_events/Ac/Test_Ac_Event_14.jpg,c,response,c,NA,TRUE,Ac
NA,NA,NA,NA,NA,image-keyboard-response,127,566727,0.0-7.0-2.0-0.1,43,Study 43,Session 43,NA,4508,img/testing_events/Ac/Test_Ac_Event_21.jpg,u,response,u,NA,TRUE,Ac
NA,NA,NA,NA,NA,image-keyboard-response,128,571647,0.0-7.0-2.0-0.2,43,Study 43,Session 43,NA,4910,img/testing_events/Ac/Test_Ac_Event_20.jpg,c,response,e,NA,FALSE,Ac
NA,NA,NA,NA,NA,image-keyboard-response,129,573500,0.0-7.0-2.0-0.3,43,Study 43,Session 43,NA,1841,img/testing_events/Ac/Test_Ac_Event_12.jpg,e,response,e,NA,TRUE,Ac
NA,NA,NA,NA,NA,image-keyboard-response,130,576220,0.0-7.0-2.0-0.4,43,Study 43,Session 43,NA,2708,img/testing_events/Ac/Test_Ac_Event_18.jpg,u,response,c,NA,FALSE,Ac
NA,NA,NA,NA,NA,image-keyboard-response,131,581517,0.0-7.0-2.0-0.5,43,Study 43,Session 43,NA,5288,img/testing_events/Ac/Test_Ac_Event_10.jpg,c,response,c,NA,TRUE,Ac
NA,NA,NA,NA,NA,image-keyboard-response,132,587455,0.0-7.0-2.0-0.6,43,Study 43,Session 43,NA,5927,img/testing_events/Ac/Test_Ac_Event_4.jpg,e,response,e,NA,TRUE,Ac
NA,NA,NA,NA,NA,image-keyboard-response,133,589540,0.0-7.0-2.0-0.7,43,Study 43,Session 43,NA,2075,img/testing_events/Ac/Test_Ac_Event_16.jpg,e,response,e,NA,TRUE,Ac
NA,NA,NA,NA,NA,image-keyboard-response,134,591993,0.0-7.0-2.0-0.8,43,Study 43,Session 43,NA,2443,img/testing_events/Ac/Test_Ac_Event_11.jpg,n,response,n,NA,TRUE,Ac
NA,NA,NA,NA,NA,image-keyboard-response,135,594949,0.0-7.0-2.0-0.9,43,Study 43,Session 43,NA,2946,img/testing_events/Ac/Test_Ac_Event_19.jpg,n,response,n,NA,TRUE,Ac
NA,NA,NA,NA,NA,image-keyboard-response,136,596488,0.0-7.0-2.0-0.10,43,Study 43,Session 43,NA,1528,img/testing_events/Ac/Test_Ac_Event_8.jpg,e,response,e,NA,TRUE,Ac
NA,NA,NA,NA,NA,image-keyboard-response,137,597809,0.0-7.0-2.0-0.11,43,Study 43,Session 43,NA,1309,img/testing_events/Ac/Test_Ac_Event_2.jpg,c,response,c,NA,TRUE,Ac
NA,NA,NA,NA,NA,image-keyboard-response,138,600253,0.0-7.0-2.0-0.12,43,Study 43,Session 43,NA,2434,img/testing_events/Ac/Test_Ac_Event_7.jpg,n,response,n,NA,TRUE,Ac
NA,NA,NA,NA,NA,image-keyboard-response,139,602395,0.0-7.0-2.0-0.13,43,Study 43,Session 43,NA,2131,img/testing_events/Ac/Test_Ac_Event_24.jpg,e,response,e,NA,TRUE,Ac
NA,NA,NA,NA,NA,image-keyboard-response,140,604148,0.0-7.0-2.0-0.14,43,Study 43,Session 43,NA,1742,img/testing_events/Ac/Test_Ac_Event_6.jpg,c,response,c,NA,TRUE,Ac
NA,NA,NA,NA,NA,image-keyboard-response,141,605752,0.0-7.0-2.0-0.15,43,Study 43,Session 43,NA,1592,img/testing_events/Ac/Test_Ac_Event_5.jpg,u,response,u,NA,TRUE,Ac
NA,NA,NA,NA,NA,image-keyboard-response,142,607750,0.0-7.0-2.0-0.16,43,Study 43,Session 43,NA,1987,img/testing_events/Ac/Test_Ac_Event_1.jpg,c,response,u,NA,FALSE,Ac
NA,NA,NA,NA,NA,image-keyboard-response,143,610903,0.0-7.0-2.0-0.17,43,Study 43,Session 43,NA,3141,img/testing_events/Ac/Test_Ac_Event_23.jpg,n,response,n,NA,TRUE,Ac
NA,NA,NA,NA,NA,image-keyboard-response,144,617774,0.0-7.0-2.0-0.18,43,Study 43,Session 43,NA,6859,img/testing_events/Ac/Test_Ac_Event_3.jpg,n,response,n,NA,TRUE,Ac
NA,NA,NA,NA,NA,image-keyboard-response,145,620405,0.0-7.0-2.0-0.19,43,Study 43,Session 43,NA,2620,img/testing_events/Ac/Test_Ac_Event_17.jpg,u,response,u,NA,TRUE,Ac
NA,NA,NA,NA,NA,image-keyboard-response,146,621840,0.0-7.0-2.0-0.20,43,Study 43,Session 43,NA,1422,img/testing_events/Ac/Test_Ac_Event_9.jpg,u,response,u,NA,TRUE,Ac
NA,NA,NA,NA,NA,image-keyboard-response,147,623509,0.0-7.0-2.0-0.21,43,Study 43,Session 43,NA,1658,img/testing_events/Ac/Test_Ac_Event_22.jpg,c,response,c,NA,TRUE,Ac
NA,NA,NA,NA,NA,image-keyboard-response,148,624914,0.0-7.0-2.0-0.22,43,Study 43,Session 43,NA,1395,img/testing_events/Ac/Test_Ac_Event_15.jpg,n,response,n,NA,TRUE,Ac
NA,NA,NA,NA,NA,image-keyboard-response,149,626540,0.0-7.0-2.0-0.23,43,Study 43,Session 43,NA,1615,img/testing_events/Ac/Test_Ac_Event_13.jpg,u,response,u,NA,TRUE,Ac
NA,NA,NA,NA,NA,image-keyboard-response,150,632487,0.0-7.0-3.0-0.0,43,Study 43,Session 43,NA,5935,img/testing_events/Ab/Test_Ab_Event_22.jpg,u,response,u,NA,TRUE,Ab
NA,NA,NA,NA,NA,image-keyboard-response,151,637257,0.0-7.0-3.0-0.1,43,Study 43,Session 43,NA,4759,img/testing_events/Ab/Test_Ab_Event_21.jpg,e,response,e,NA,TRUE,Ab
NA,NA,NA,NA,NA,image-keyboard-response,152,639691,0.0-7.0-3.0-0.2,43,Study 43,Session 43,NA,2422,img/testing_events/Ab/Test_Ab_Event_11.jpg,c,response,c,NA,TRUE,Ab
NA,NA,NA,NA,NA,image-keyboard-response,153,648007,0.0-7.0-3.0-0.3,43,Study 43,Session 43,NA,8304,img/testing_events/Ab/Test_Ab_Event_19.jpg,c,response,c,NA,TRUE,Ab
NA,NA,NA,NA,NA,image-keyboard-response,154,649354,0.0-7.0-3.0-0.4,43,Study 43,Session 43,NA,1337,img/testing_events/Ab/Test_Ab_Event_23.jpg,c,response,c,NA,TRUE,Ab
NA,NA,NA,NA,NA,image-keyboard-response,155,653699,0.0-7.0-3.0-0.5,43,Study 43,Session 43,NA,4337,img/testing_events/Ab/Test_Ab_Event_3.jpg,n,response,c,NA,FALSE,Ab
NA,NA,NA,NA,NA,image-keyboard-response,156,656264,0.0-7.0-3.0-0.6,43,Study 43,Session 43,NA,2553,img/testing_events/Ab/Test_Ab_Event_18.jpg,u,response,u,NA,TRUE,Ab
NA,NA,NA,NA,NA,image-keyboard-response,157,658105,0.0-7.0-3.0-0.7,43,Study 43,Session 43,NA,1829,img/testing_events/Ab/Test_Ab_Event_24.jpg,n,response,n,NA,TRUE,Ab
NA,NA,NA,NA,NA,image-keyboard-response,158,659476,0.0-7.0-3.0-0.8,43,Study 43,Session 43,NA,1359,img/testing_events/Ab/Test_Ab_Event_5.jpg,e,response,e,NA,TRUE,Ab
NA,NA,NA,NA,NA,image-keyboard-response,159,660814,0.0-7.0-3.0-0.9,43,Study 43,Session 43,NA,1328,img/testing_events/Ab/Test_Ab_Event_15.jpg,c,response,c,NA,TRUE,Ab
NA,NA,NA,NA,NA,image-keyboard-response,160,665354,0.0-7.0-3.0-0.10,43,Study 43,Session 43,NA,4528,img/testing_events/Ab/Test_Ab_Event_6.jpg,u,response,u,NA,TRUE,Ab
NA,NA,NA,NA,NA,image-keyboard-response,161,670952,0.0-7.0-3.0-0.11,43,Study 43,Session 43,NA,5587,img/testing_events/Ab/Test_Ab_Event_20.jpg,n,response,n,NA,TRUE,Ab
NA,NA,NA,NA,NA,image-keyboard-response,162,673179,0.0-7.0-3.0-0.12,43,Study 43,Session 43,NA,2215,img/testing_events/Ab/Test_Ab_Event_2.jpg,u,response,u,NA,TRUE,Ab
NA,NA,NA,NA,NA,image-keyboard-response,163,675027,0.0-7.0-3.0-0.13,43,Study 43,Session 43,NA,1838,img/testing_events/Ab/Test_Ab_Event_8.jpg,n,response,n,NA,TRUE,Ab
NA,NA,NA,NA,NA,image-keyboard-response,164,676298,0.0-7.0-3.0-0.14,43,Study 43,Session 43,NA,1260,img/testing_events/Ab/Test_Ab_Event_13.jpg,e,response,e,NA,TRUE,Ab
NA,NA,NA,NA,NA,image-keyboard-response,165,678112,0.0-7.0-3.0-0.15,43,Study 43,Session 43,NA,1803,img/testing_events/Ab/Test_Ab_Event_9.jpg,e,response,e,NA,TRUE,Ab
NA,NA,NA,NA,NA,image-keyboard-response,166,680388,0.0-7.0-3.0-0.16,43,Study 43,Session 43,NA,2265,img/testing_events/Ab/Test_Ab_Event_4.jpg,c,response,n,NA,FALSE,Ab
NA,NA,NA,NA,NA,image-keyboard-response,167,681910,0.0-7.0-3.0-0.17,43,Study 43,Session 43,NA,1511,img/testing_events/Ab/Test_Ab_Event_16.jpg,n,response,n,NA,TRUE,Ab
NA,NA,NA,NA,NA,image-keyboard-response,168,685778,0.0-7.0-3.0-0.18,43,Study 43,Session 43,NA,3857,img/testing_events/Ab/Test_Ab_Event_10.jpg,n,response,u,NA,FALSE,Ab
NA,NA,NA,NA,NA,image-keyboard-response,169,693006,0.0-7.0-3.0-0.19,43,Study 43,Session 43,NA,7217,img/testing_events/Ab/Test_Ab_Event_1.jpg,c,response,e,NA,FALSE,Ab
NA,NA,NA,NA,NA,image-keyboard-response,170,695201,0.0-7.0-3.0-0.20,43,Study 43,Session 43,NA,2184,img/testing_events/Ab/Test_Ab_Event_14.jpg,u,response,u,NA,TRUE,Ab
NA,NA,NA,NA,NA,image-keyboard-response,171,696888,0.0-7.0-3.0-0.21,43,Study 43,Session 43,NA,1676,img/testing_events/Ab/Test_Ab_Event_7.jpg,c,response,c,NA,TRUE,Ab
NA,NA,NA,NA,NA,image-keyboard-response,172,699214,0.0-7.0-3.0-0.22,43,Study 43,Session 43,NA,2316,img/testing_events/Ab/Test_Ab_Event_17.jpg,e,response,e,NA,TRUE,Ab
NA,NA,NA,NA,NA,image-keyboard-response,173,701314,0.0-7.0-3.0-0.23,43,Study 43,Session 43,NA,2088,img/testing_events/Ab/Test_Ab_Event_12.jpg,n,response,n,NA,TRUE,Ab
NA,NA,NA,NA,NA,image-keyboard-response,174,709068,0.0-7.0-4.0-0.0,43,Study 43,Session 43,NA,7742,img/testing_events/Bc/Test_Bc_Event_23.jpg,u,response,u,NA,TRUE,Bc
NA,NA,NA,NA,NA,image-keyboard-response,175,716197,0.0-7.0-4.0-0.1,43,Study 43,Session 43,NA,7118,img/testing_events/Bc/Test_Bc_Event_11.jpg,u,response,u,NA,TRUE,Bc
NA,NA,NA,NA,NA,image-keyboard-response,176,717726,0.0-7.0-4.0-0.2,43,Study 43,Session 43,NA,1518,img/testing_events/Bc/Test_Bc_Event_15.jpg,u,response,u,NA,TRUE,Bc
NA,NA,NA,NA,NA,image-keyboard-response,177,720028,0.0-7.0-4.0-0.3,43,Study 43,Session 43,NA,2291,img/testing_events/Bc/Test_Bc_Event_3.jpg,u,response,u,NA,TRUE,Bc
NA,NA,NA,NA,NA,image-keyboard-response,178,721403,0.0-7.0-4.0-0.4,43,Study 43,Session 43,NA,1364,img/testing_events/Bc/Test_Bc_Event_2.jpg,e,response,e,NA,TRUE,Bc
NA,NA,NA,NA,NA,image-keyboard-response,179,724668,0.0-7.0-4.0-0.5,43,Study 43,Session 43,NA,3254,img/testing_events/Bc/Test_Bc_Event_20.jpg,n,response,c,NA,FALSE,Bc
NA,NA,NA,NA,NA,image-keyboard-response,180,730133,0.0-7.0-4.0-0.6,43,Study 43,Session 43,NA,5454,img/testing_events/Bc/Test_Bc_Event_9.jpg,n,response,n,NA,TRUE,Bc
NA,NA,NA,NA,NA,image-keyboard-response,181,731518,0.0-7.0-4.0-0.7,43,Study 43,Session 43,NA,1374,img/testing_events/Bc/Test_Bc_Event_16.jpg,c,response,c,NA,TRUE,Bc
NA,NA,NA,NA,NA,image-keyboard-response,182,738883,0.0-7.0-4.0-0.8,43,Study 43,Session 43,NA,7354,img/testing_events/Bc/Test_Bc_Event_10.jpg,e,response,e,NA,TRUE,Bc
NA,NA,NA,NA,NA,image-keyboard-response,183,740020,0.0-7.0-4.0-0.9,43,Study 43,Session 43,NA,1128,img/testing_events/Bc/Test_Bc_Event_8.jpg,c,response,c,NA,TRUE,Bc
NA,NA,NA,NA,NA,image-keyboard-response,184,744660,0.0-7.0-4.0-0.10,43,Study 43,Session 43,NA,4628,img/testing_events/Bc/Test_Bc_Event_19.jpg,u,response,u,NA,TRUE,Bc
NA,NA,NA,NA,NA,image-keyboard-response,185,746827,0.0-7.0-4.0-0.11,43,Study 43,Session 43,NA,2156,img/testing_events/Bc/Test_Bc_Event_5.jpg,n,response,n,NA,TRUE,Bc
NA,NA,NA,NA,NA,image-keyboard-response,186,749104,0.0-7.0-4.0-0.12,43,Study 43,Session 43,NA,2268,img/testing_events/Bc/Test_Bc_Event_24.jpg,c,response,c,NA,TRUE,Bc
NA,NA,NA,NA,NA,image-keyboard-response,187,751756,0.0-7.0-4.0-0.13,43,Study 43,Session 43,NA,2644,img/testing_events/Bc/Test_Bc_Event_7.jpg,u,response,u,NA,TRUE,Bc
NA,NA,NA,NA,NA,image-keyboard-response,188,757250,0.0-7.0-4.0-0.14,43,Study 43,Session 43,NA,5485,img/testing_events/Bc/Test_Bc_Event_21.jpg,c,response,n,NA,FALSE,Bc
NA,NA,NA,NA,NA,image-keyboard-response,189,763469,0.0-7.0-4.0-0.15,43,Study 43,Session 43,NA,6209,img/testing_events/Bc/Test_Bc_Event_12.jpg,c,response,c,NA,TRUE,Bc
NA,NA,NA,NA,NA,image-keyboard-response,190,772234,0.0-7.0-4.0-0.16,43,Study 43,Session 43,NA,8752,img/testing_events/Bc/Test_Bc_Event_4.jpg,c,response,c,NA,TRUE,Bc
NA,NA,NA,NA,NA,image-keyboard-response,191,774695,0.0-7.0-4.0-0.17,43,Study 43,Session 43,NA,2451,img/testing_events/Bc/Test_Bc_Event_6.jpg,e,response,e,NA,TRUE,Bc
NA,NA,NA,NA,NA,image-keyboard-response,192,778438,0.0-7.0-4.0-0.18,43,Study 43,Session 43,NA,3733,img/testing_events/Bc/Test_Bc_Event_1.jpg,n,response,n,NA,TRUE,Bc
NA,NA,NA,NA,NA,image-keyboard-response,193,780847,0.0-7.0-4.0-0.19,43,Study 43,Session 43,NA,2395,img/testing_events/Bc/Test_Bc_Event_17.jpg,n,response,n,NA,TRUE,Bc
NA,NA,NA,NA,NA,image-keyboard-response,194,783380,0.0-7.0-4.0-0.20,43,Study 43,Session 43,NA,2522,img/testing_events/Bc/Test_Bc_Event_18.jpg,e,response,e,NA,TRUE,Bc
NA,NA,NA,NA,NA,image-keyboard-response,195,784838,0.0-7.0-4.0-0.21,43,Study 43,Session 43,NA,1452,img/testing_events/Bc/Test_Bc_Event_14.jpg,e,response,e,NA,TRUE,Bc
NA,NA,NA,NA,NA,image-keyboard-response,196,786629,0.0-7.0-4.0-0.22,43,Study 43,Session 43,NA,1780,img/testing_events/Bc/Test_Bc_Event_13.jpg,n,response,n,NA,TRUE,Bc
NA,NA,NA,NA,NA,image-keyboard-response,197,787776,0.0-7.0-4.0-0.23,43,Study 43,Session 43,NA,1135,img/testing_events/Bc/Test_Bc_Event_22.jpg,e,response,e,NA,TRUE,Bc
NA,NA,NA,NA,NA,image-keyboard-response,198,791085,0.0-7.0-5.0-0.0,43,Study 43,Session 43,NA,3298,img/testing_events/Ba/Test_Ba_Event_15.jpg,e,response,e,NA,TRUE,Ba
NA,NA,NA,NA,NA,image-keyboard-response,199,793709,0.0-7.0-5.0-0.1,43,Study 43,Session 43,NA,2613,img/testing_events/Ba/Test_Ba_Event_22.jpg,n,response,n,NA,TRUE,Ba
NA,NA,NA,NA,NA,image-keyboard-response,200,799811,0.0-7.0-5.0-0.2,43,Study 43,Session 43,NA,6092,img/testing_events/Ba/Test_Ba_Event_10.jpg,n,response,n,NA,TRUE,Ba
NA,NA,NA,NA,NA,image-keyboard-response,201,803328,0.0-7.0-5.0-0.3,43,Study 43,Session 43,NA,3507,img/testing_events/Ba/Test_Ba_Event_24.jpg,u,response,u,NA,TRUE,Ba
NA,NA,NA,NA,NA,image-keyboard-response,202,806602,0.0-7.0-5.0-0.4,43,Study 43,Session 43,NA,3261,img/testing_events/Ba/Test_Ba_Event_1.jpg,c,response,c,NA,TRUE,Ba
NA,NA,NA,NA,NA,image-keyboard-response,203,814067,0.0-7.0-5.0-0.5,43,Study 43,Session 43,NA,7455,img/testing_events/Ba/Test_Ba_Event_4.jpg,e,response,u,NA,FALSE,Ba
NA,NA,NA,NA,NA,image-keyboard-response,204,816336,0.0-7.0-5.0-0.6,43,Study 43,Session 43,NA,2258,img/testing_events/Ba/Test_Ba_Event_11.jpg,e,response,e,NA,TRUE,Ba
NA,NA,NA,NA,NA,image-keyboard-response,205,821299,0.0-7.0-5.0-0.7,43,Study 43,Session 43,NA,4953,img/testing_events/Ba/Test_Ba_Event_3.jpg,e,response,e,NA,TRUE,Ba
NA,NA,NA,NA,NA,image-keyboard-response,206,824771,0.0-7.0-5.0-0.8,43,Study 43,Session 43,NA,3459,img/testing_events/Ba/Test_Ba_Event_18.jpg,n,response,n,NA,TRUE,Ba
NA,NA,NA,NA,NA,image-keyboard-response,207,826613,0.0-7.0-5.0-0.9,43,Study 43,Session 43,NA,1830,img/testing_events/Ba/Test_Ba_Event_20.jpg,u,response,u,NA,TRUE,Ba
NA,NA,NA,NA,NA,image-keyboard-response,208,828810,0.0-7.0-5.0-0.10,43,Study 43,Session 43,NA,2185,img/testing_events/Ba/Test_Ba_Event_12.jpg,u,response,u,NA,TRUE,Ba
NA,NA,NA,NA,NA,image-keyboard-response,209,830383,0.0-7.0-5.0-0.11,43,Study 43,Session 43,NA,1563,img/testing_events/Ba/Test_Ba_Event_2.jpg,n,response,n,NA,TRUE,Ba
NA,NA,NA,NA,NA,image-keyboard-response,210,832095,0.0-7.0-5.0-0.12,43,Study 43,Session 43,NA,1702,img/testing_events/Ba/Test_Ba_Event_5.jpg,c,response,c,NA,TRUE,Ba
NA,NA,NA,NA,NA,image-keyboard-response,211,835446,0.0-7.0-5.0-0.13,43,Study 43,Session 43,NA,3338,img/testing_events/Ba/Test_Ba_Event_19.jpg,e,response,e,NA,TRUE,Ba
NA,NA,NA,NA,NA,image-keyboard-response,212,837127,0.0-7.0-5.0-0.14,43,Study 43,Session 43,NA,1670,img/testing_events/Ba/Test_Ba_Event_13.jpg,c,response,c,NA,TRUE,Ba
NA,NA,NA,NA,NA,image-keyboard-response,213,839049,0.0-7.0-5.0-0.15,43,Study 43,Session 43,NA,1910,img/testing_events/Ba/Test_Ba_Event_8.jpg,u,response,u,NA,TRUE,Ba
NA,NA,NA,NA,NA,image-keyboard-response,214,840427,0.0-7.0-5.0-0.16,43,Study 43,Session 43,NA,1367,img/testing_events/Ba/Test_Ba_Event_16.jpg,u,response,u,NA,TRUE,Ba
NA,NA,NA,NA,NA,image-keyboard-response,215,842654,0.0-7.0-5.0-0.17,43,Study 43,Session 43,NA,2217,img/testing_events/Ba/Test_Ba_Event_17.jpg,c,response,c,NA,TRUE,Ba
NA,NA,NA,NA,NA,image-keyboard-response,216,844516,0.0-7.0-5.0-0.18,43,Study 43,Session 43,NA,1850,img/testing_events/Ba/Test_Ba_Event_14.jpg,n,response,n,NA,TRUE,Ba
NA,NA,NA,NA,NA,image-keyboard-response,217,849799,0.0-7.0-5.0-0.19,43,Study 43,Session 43,NA,5271,img/testing_events/Ba/Test_Ba_Event_21.jpg,c,response,c,NA,TRUE,Ba
NA,NA,NA,NA,NA,image-keyboard-response,218,851400,0.0-7.0-5.0-0.20,43,Study 43,Session 43,NA,1590,img/testing_events/Ba/Test_Ba_Event_9.jpg,c,response,c,NA,TRUE,Ba
NA,NA,NA,NA,NA,image-keyboard-response,219,853023,0.0-7.0-5.0-0.21,43,Study 43,Session 43,NA,1612,img/testing_events/Ba/Test_Ba_Event_7.jpg,e,response,e,NA,TRUE,Ba
NA,NA,NA,NA,NA,image-keyboard-response,220,855188,0.0-7.0-5.0-0.22,43,Study 43,Session 43,NA,2154,img/testing_events/Ba/Test_Ba_Event_6.jpg,n,response,n,NA,TRUE,Ba
NA,NA,NA,NA,NA,image-keyboard-response,221,858052,0.0-7.0-5.0-0.23,43,Study 43,Session 43,NA,2855,img/testing_events/Ba/Test_Ba_Event_23.jpg,e,response,e,NA,TRUE,Ba
NA,NA,NA,NA,NA,survey-text,222,864740,0.0-8.0,43,Study 43,Session 43,NA,6588,NA,"{""Q0"":""No"",""Q1"":""No"",""Q2"":""No""}",NA,NA,NA,NA,NA
NA,NA,NA,NA,NA,survey-html-form,223,885585,0.0-9.0,43,Study 43,Session 43,NA,20843,NA,"{""Gender"":""Female"",""Age"":""27"",""ColorBlind"":""No"",""Education"":""Bachelors degree"",""Income"":""$25,000-$49,999"",""Race"":""Other/unknown"",""Fluent"":""Yes"",""AgeEnglish"":""0"",""Country"":""USA""}",NA,NA,NA,NA,NA
TRUE,NA,NA,NA,NA,fullscreen,224,885589,0.0-10.0,43,Study 43,Session 43,NA,NA,NA,NA,NA,NA,NA,NA,NA
