success,timeout,failed_images,failed_audio,failed_video,trial_type,trial_index,time_elapsed,internal_node_id,subject_id,study_id,session_id,view_history,rt,stimulus,response,task,correct_response,attention_duration,correct,retrieval_group
TRUE,FALSE,[],[],[],preload,0,667,0.0-0.0,52,Study 52,Session 52,NA,NA,NA,NA,NA,NA,NA,NA,NA
TRUE,NA,NA,NA,NA,fullscreen,1,3343,0.0-1.0,52,Study 52,Session 52,NA,NA,NA,NA,NA,NA,NA,NA,NA
NA,NA,NA,NA,NA,instructions,2,20604,0.0-2.0,52,Study 52,Session 52,"[{""page_index"":0,""viewing_time"":17260}]",17260,NA,NA,NA,NA,NA,NA,NA
NA,NA,NA,NA,NA,html-keyboard-response,3,43422,0.0-3.0,52,Study 52,Session 52,NA,22817,"Welcome to the experiment. <br /><br />This experiment will take about 20 minutes. Please complete all in one sitting. <br /><br />For this study, <strong>please use</strong> a laptop or desktop computer (not a mobile phone or tablet). Also, please use either <u>Chrome or Firefox</u>. <br /><br />Once you begin, <strong>DO NOT</strong> refresh the browser, as the experiment will reset and you will lose your progress. <br /><br />Press the <strong class=""upperline"">B</strong> key on your keyboard to begin.",b,NA,NA,NA,NA,NA
NA,NA,NA,NA,NA,instructions,4,101729,0.0-4.0,52,Study 52,Session 52,"[{""page_index"":0,""viewing_time"":12966},{""page_index"":1,""viewing_time"":41474},{""page_index"":2,""viewing_time"":2865}]",57305,NA,NA,NA,NA,NA,NA,NA
NA,NA,NA,NA,NA,html-keyboard-response,5,104742,0.0-5.0-0.0,52,Study 52,Session 52,NA,null,"<div style=""font-size:60px;"">+</div>",null,fixation,NA,NA,NA,NA
NA,NA,NA,NA,NA,image-keyboard-response,6,110751,0.0-5.0-1.0,52,Study 52,Session 52,NA,null,img/encoding_events/Event_8.jpg,null,NA,NA,NA,NA,NA
NA,NA,NA,NA,NA,html-keyboard-response,7,110755,0.0-5.0-2.0,52,Study 52,Session 52,NA,null,Please press the <strong><u>k</u></strong> key to continue,null,response,k,0,FALSE,NA
NA,NA,NA,NA,NA,html-keyboard-response,8,111261,0.0-5.0-0.1,52,Study 52,Session 52,NA,null,"<div style=""font-size:60px;"">+</div>",null,fixation,NA,NA,NA,NA
NA,NA,NA,NA,NA,image-keyboard-response,9,117266,0.0-5.0-1.1,52,Study 52,Session 52,NA,null,img/encoding_events/Event_14.jpg,null,NA,NA,NA,NA,NA
NA,NA,NA,NA,NA,html-keyboard-response,10,117271,0.0-5.0-2.1,52,Study 52,Session 52,NA,null,Please press the <strong><u>s</u></strong> key to continue,null,response,s,0,FALSE,NA
NA,NA,NA,NA,NA,html-keyboard-response,11,117774,0.0-5.0-0.2,52,Study 52,Session 52,NA,null,"<div style=""font-size:60px;"">+</div>",null,fixation,NA,NA,NA,NA
NA,NA,NA,NA,NA,image-keyboard-response,12,123779,0.0-5.0-1.2,52,Study 52,Session 52,NA,null,img/encoding_events/Event_22.jpg,null,NA,NA,NA,NA,NA
NA,NA,NA,NA,NA,html-keyboard-response,13,123784,0.0-5.0-2.2,52,Study 52,Session 52,NA,null,Please press the <strong><u>a</u></strong> key to continue,null,response,a,0,FALSE,NA
NA,NA,NA,NA,NA,html-keyboard-response,14,124294,0.0-5.0-0.3,52,Study 52,Session 52,NA,null,"<div style=""font-size:60px;"">+</div>",null,fixation,NA,NA,NA,NA
NA,NA,NA,NA,NA,image-keyboard-response,15,130296,0.0-5.0-1.3,52,Study 52,Session 52,NA,null,img/encoding_events/Event_2.jpg,null,NA,NA,NA,NA,NA
NA,NA,NA,NA,NA,html-keyboard-response,16,132770,0.0-5.0-2.3,52,Study 52,Session 52,NA,2474,Please press the <strong><u>j</u></strong> key to continue,j,response,j,6000,TRUE,NA
NA,NA,NA,NA,NA,html-keyboard-response,17,133275,0.0-5.0-0.4,52,Study 52,Session 52,NA,null,"<div style=""font-size:60px;"">+</div>",null,fixation,NA,NA,NA,NA
NA,NA,NA,NA,NA,image-keyboard-response,18,139277,0.0-5.0-1.4,52,Study 52,Session 52,NA,null,img/encoding_events/Event_15.jpg,null,NA,NA,NA,NA,NA
NA,NA,NA,NA,NA,html-keyboard-response,19,139278,0.0-5.0-2.4,52,Study 52,Session 52,NA,null,Please press the <strong><u>f</u></strong> key to continue,null,response,f,0,FALSE,NA
NA,NA,NA,NA,NA,html-keyboard-response,20,139789,0.0-5.0-0.5,52,Study 52,Session 52,NA,null,"<div style=""font-size:60px;"">+</div>",null,fixation,NA,NA,NA,NA
NA,NA,NA,NA,NA,image-keyboard-response,21,145793,0.0-5.0-1.5,52,Study 52,Session 52,NA,null,img/encoding_events/Event_18.jpg,null,NA,NA,NA,NA,NA
NA,NA,NA,NA,NA,html-keyboard-response,22,145798,0.0-5.0-2.5,52,Study 52,Session 52,NA,null,Please press the <strong><u>d</u></strong> key to continue,null,response,d,0,FALSE,NA
NA,NA,NA,NA,NA,html-keyboard-response,23,146308,0.0-5.0-0.6,52,Study 52,Session 52,NA,null,"<div style=""font-size:60px;"">+</div>",null,fixation,NA,NA,NA,NA
NA,NA,NA,NA,NA,image-keyboard-response,24,152312,0.0-5.0-1.6,52,Study 52,Session 52,NA,null,img/encoding_events/Event_9.jpg,null,NA,NA,NA,NA,NA
NA,NA,NA,NA,NA,html-keyboard-response,25,152317,0.0-5.0-2.6,52,Study 52,Session 52,NA,null,Please press the <strong><u>d</u></strong> key to continue,null,response,d,0,FALSE,NA
NA,NA,NA,NA,NA,html-keyboard-response,26,152826,0.0-5.0-0.7,52,Study 52,Session 52,NA,null,"<div style=""font-size:60px;"">+</div>",null,fixation,NA,NA,NA,NA
NA,NA,NA,NA,NA,image-keyboard-response,27,158833,0.0-5.0-1.7,52,Study 52,Session 52,NA,null,img/encoding_events/Event_11.jpg,null,NA,NA,NA,NA,NA
NA,NA,NA,NA,NA,html-keyboard-response,28,160871,0.0-5.0-2.7,52,Study 52,Session 52,NA,2037,Please press the <strong><u>a</u></strong> key to continue,a,response,a,6000,TRUE,NA
NA,NA,NA,NA,NA,html-keyboard-response,29,161375,0.0-5.0-0.8,52,Study 52,Session 52,NA,null,"<div style=""font-size:60px;"">+</div>",null,fixation,NA,NA,NA,NA
NA,NA,NA,NA,NA,image-keyboard-response,30,167378,0.0-5.0-1.8,52,Study 52,Session 52,NA,null,img/encoding_events/Event_5.jpg,null,NA,NA,NA,NA,NA
NA,NA,NA,NA,NA,html-keyboard-response,31,167379,0.0-5.0-2.8,52,Study 52,Session 52,NA,null,Please press the <strong><u>f</u></strong> key to continue,null,response,f,0,FALSE,NA
NA,NA,NA,NA,NA,html-keyboard-response,32,167893,0.0-5.0-0.9,52,Study 52,Session 52,NA,null,"<div style=""font-size:60px;"">+</div>",null,fixation,NA,NA,NA,NA
NA,NA,NA,NA,NA,image-keyboard-response,33,173907,0.0-5.0-1.9,52,Study 52,Session 52,NA,null,img/encoding_events/Event_16.jpg,null,NA,NA,NA,NA,NA
NA,NA,NA,NA,NA,html-keyboard-response,34,173911,0.0-5.0-2.9,52,Study 52,Session 52,NA,null,Please press the <strong><u>k</u></strong> key to continue,null,response,k,0,FALSE,NA
NA,NA,NA,NA,NA,html-keyboard-response,35,174413,0.0-5.0-0.10,52,Study 52,Session 52,NA,null,"<div style=""font-size:60px;"">+</div>",null,fixation,NA,NA,NA,NA
NA,NA,NA,NA,NA,image-keyboard-response,36,180427,0.0-5.0-1.10,52,Study 52,Session 52,NA,null,img/encoding_events/Event_1.jpg,null,NA,NA,NA,NA,NA
NA,NA,NA,NA,NA,html-keyboard-response,37,180432,0.0-5.0-2.10,52,Study 52,Session 52,NA,null,Please press the <strong><u>s</u></strong> key to continue,null,response,s,0,FALSE,NA
NA,NA,NA,NA,NA,html-keyboard-response,38,180938,0.0-5.0-0.11,52,Study 52,Session 52,NA,null,"<div style=""font-size:60px;"">+</div>",null,fixation,NA,NA,NA,NA
NA,NA,NA,NA,NA,image-keyboard-response,39,186950,0.0-5.0-1.11,52,Study 52,Session 52,NA,null,img/encoding_events/Event_4.jpg,null,NA,NA,NA,NA,NA
NA,NA,NA,NA,NA,html-keyboard-response,40,190281,0.0-5.0-2.11,52,Study 52,Session 52,NA,3330,Please press the <strong><u>s</u></strong> key to continue,s,response,s,6000,TRUE,NA
NA,NA,NA,NA,NA,html-keyboard-response,41,190790,0.0-5.0-0.12,52,Study 52,Session 52,NA,null,"<div style=""font-size:60px;"">+</div>",null,fixation,NA,NA,NA,NA
NA,NA,NA,NA,NA,image-keyboard-response,42,196804,0.0-5.0-1.12,52,Study 52,Session 52,NA,null,img/encoding_events/Event_17.jpg,null,NA,NA,NA,NA,NA
NA,NA,NA,NA,NA,html-keyboard-response,43,196805,0.0-5.0-2.12,52,Study 52,Session 52,NA,null,Please press the <strong><u>d</u></strong> key to continue,null,response,d,0,FALSE,NA
NA,NA,NA,NA,NA,html-keyboard-response,44,197309,0.0-5.0-0.13,52,Study 52,Session 52,NA,null,"<div style=""font-size:60px;"">+</div>",null,fixation,NA,NA,NA,NA
NA,NA,NA,NA,NA,image-keyboard-response,45,203316,0.0-5.0-1.13,52,Study 52,Session 52,NA,null,img/encoding_events/Event_3.jpg,null,NA,NA,NA,NA,NA
NA,NA,NA,NA,NA,html-keyboard-response,46,203321,0.0-5.0-2.13,52,Study 52,Session 52,NA,null,Please press the <strong><u>f</u></strong> key to continue,null,response,f,0,FALSE,NA
NA,NA,NA,NA,NA,html-keyboard-response,47,203833,0.0-5.0-0.14,52,Study 52,Session 52,NA,null,"<div style=""font-size:60px;"">+</div>",null,fixation,NA,NA,NA,NA
NA,NA,NA,NA,NA,image-keyboard-response,48,209849,0.0-5.0-1.14,52,Study 52,Session 52,NA,null,img/encoding_events/Event_20.jpg,null,NA,NA,NA,NA,NA
NA,NA,NA,NA,NA,html-keyboard-response,49,209854,0.0-5.0-2.14,52,Study 52,Session 52,NA,null,Please press the <strong><u>a</u></strong> key to continue,null,response,a,0,FALSE,NA
NA,NA,NA,NA,NA,html-keyboard-response,50,210356,0.0-5.0-0.15,52,Study 52,Session 52,NA,null,"<div style=""font-size:60px;"">+</div>",null,fixation,NA,NA,NA,NA
NA,NA,NA,NA,NA,image-keyboard-response,51,216366,0.0-5.0-1.15,52,Study 52,Session 52,NA,null,img/encoding_events/Event_24.jpg,null,NA,NA,NA,NA,NA
NA,NA,NA,NA,NA,html-keyboard-response,52,218048,0.0-5.0-2.15,52,Study 52,Session 52,NA,1681,Please press the <strong><u>d</u></strong> key to continue,d,response,d,6000,TRUE,NA
NA,NA,NA,NA,NA,html-keyboard-response,53,218559,0.0-5.0-0.16,52,Study 52,Session 52,NA,null,"<div style=""font-size:60px;"">+</div>",null,fixation,NA,NA,NA,NA
NA,NA,NA,NA,NA,image-keyboard-response,54,224563,0.0-5.0-1.16,52,Study 52,Session 52,NA,null,img/encoding_events/Event_21.jpg,null,NA,NA,NA,NA,NA
NA,NA,NA,NA,NA,html-keyboard-response,55,224563,0.0-5.0-2.16,52,Study 52,Session 52,NA,null,Please press the <strong><u>s</u></strong> key to continue,null,response,s,0,FALSE,NA
NA,NA,NA,NA,NA,html-keyboard-response,56,225068,0.0-5.0-0.17,52,Study 52,Session 52,NA,null,"<div style=""font-size:60px;"">+</div>",null,fixation,NA,NA,NA,NA
NA,NA,NA,NA,NA,image-keyboard-response,57,231075,0.0-5.0-1.17,52,Study 52,Session 52,NA,null,img/encoding_events/Event_19.jpg,null,NA,NA,NA,NA,NA
NA,NA,NA,NA,NA,html-keyboard-response,58,231080,0.0-5.0-2.17,52,Study 52,Session 52,NA,null,Please press the <strong><u>k</u></strong> key to continue,null,response,k,0,FALSE,NA
NA,NA,NA,NA,NA,html-keyboard-response,59,231591,0.0-5.0-0.18,52,Study 52,Session 52,NA,null,"<div style=""font-size:60px;"">+</div>",null,fixation,NA,NA,NA,NA
NA,NA,NA,NA,NA,image-keyboard-response,60,237595,0.0-5.0-1.18,52,Study 52,Session 52,NA,null,img/encoding_events/Event_7.jpg,null,NA,NA,NA,NA,NA
NA,NA,NA,NA,NA,html-keyboard-response,61,237599,0.0-5.0-2.18,52,Study 52,Session 52,NA,null,Please press the <strong><u>j</u></strong> key to continue,null,response,j,0,FALSE,NA
NA,NA,NA,NA,NA,html-keyboard-response,62,238108,0.0-5.0-0.19,52,Study 52,Session 52,NA,null,"<div style=""font-size:60px;"">+</div>",null,fixation,NA,NA,NA,NA
NA,NA,NA,NA,NA,image-keyboard-response,63,244111,0.0-5.0-1.19,52,Study 52,Session 52,NA,null,img/encoding_events/Event_10.jpg,null,NA,NA,NA,NA,NA
NA,NA,NA,NA,NA,html-keyboard-response,64,247966,0.0-5.0-2.19,52,Study 52,Session 52,NA,3855,Please press the <strong><u>d</u></strong> key to continue,d,response,d,6000,TRUE,NA
NA,NA,NA,NA,NA,html-keyboard-response,65,248480,0.0-5.0-0.20,52,Study 52,Session 52,NA,null,"<div style=""font-size:60px;"">+</div>",null,fixation,NA,NA,NA,NA
NA,NA,NA,NA,NA,image-keyboard-response,66,254488,0.0-5.0-1.20,52,Study 52,Session 52,NA,null,img/encoding_events/Event_6.jpg,null,NA,NA,NA,NA,NA
NA,NA,NA,NA,NA,html-keyboard-response,67,254489,0.0-5.0-2.20,52,Study 52,Session 52,NA,null,Please press the <strong><u>f</u></strong> key to continue,null,response,f,0,FALSE,NA
NA,NA,NA,NA,NA,html-keyboard-response,68,254996,0.0-5.0-0.21,52,Study 52,Session 52,NA,null,"<div style=""font-size:60px;"">+</div>",null,fixation,NA,NA,NA,NA
NA,NA,NA,NA,NA,image-keyboard-response,69,261001,0.0-5.0-1.21,52,Study 52,Session 52,NA,null,img/encoding_events/Event_12.jpg,null,NA,NA,NA,NA,NA
NA,NA,NA,NA,NA,html-keyboard-response,70,261006,0.0-5.0-2.21,52,Study 52,Session 52,NA,null,Please press the <strong><u>j</u></strong> key to continue,null,response,j,0,FALSE,NA
NA,NA,NA,NA,NA,html-keyboard-response,71,261511,0.0-5.0-0.22,52,Study 52,Session 52,NA,null,"<div style=""font-size:60px;"">+</div>",null,fixation,NA,NA,NA,NA
NA,NA,NA,NA,NA,image-keyboard-response,72,267523,0.0-5.0-1.22,52,Study 52,Session 52,NA,null,img/encoding_events/Event_13.jpg,null,NA,NA,NA,NA,NA
NA,NA,NA,NA,NA,html-keyboard-response,73,267527,0.0-5.0-2.22,52,Study 52,Session 52,NA,null,Please press the <strong><u>j</u></strong> key to continue,null,response,j,0,FALSE,NA
NA,NA,NA,NA,NA,html-keyboard-response,74,268040,0.0-5.0-0.23,52,Study 52,Session 52,NA,null,"<div style=""font-size:60px;"">+</div>",null,fixation,NA,NA,NA,NA
NA,NA,NA,NA,NA,image-keyboard-response,75,274052,0.0-5.0-1.23,52,Study 52,Session 52,NA,null,img/encoding_events/Event_23.jpg,null,NA,NA,NA,NA,NA
NA,NA,NA,NA,NA,html-keyboard-response,76,275977,0.0-5.0-2.23,52,Study 52,Session 52,NA,1924,Please press the <strong><u>f</u></strong> key to continue,f,response,f,6000,TRUE,NA
NA,NA,NA,NA,NA,instructions,77,409919,0.0-6.0,52,Study 52,Session 52,"[{""page_index"":0,""viewing_time"":25596},{""page_index"":1,""viewing_time"":17982},{""page_index"":2,""viewing_time"":35749},{""page_index"":3,""viewing_time"":23565},{""page_index"":4,""viewing_time"":17173},{""page_index"":5,""viewing_time"":12117},{""page_index"":6,""viewing_time"":1760}]",133942,NA,NA,NA,NA,NA,NA,NA
NA,NA,NA,NA,NA,image-keyboard-response,78,422424,0.0-7.0-0.0-0.0,52,Study 52,Session 52,NA,9991,img/testing_events/Ca/Test_Ca_Event_21.jpg,n,response,e,NA,FALSE,Ca
NA,NA,NA,NA,NA,image-keyboard-response,79,424522,0.0-7.0-0.0-0.1,52,Study 52,Session 52,NA,2097,img/testing_events/Ca/Test_Ca_Event_1.jpg,e,response,e,NA,TRUE,Ca
NA,NA,NA,NA,NA,image-keyboard-response,80,427708,0.0-7.0-0.0-0.2,52,Study 52,Session 52,NA,3185,img/testing_events/Ca/Test_Ca_Event_23.jpg,c,response,c,NA,TRUE,Ca
NA,NA,NA,NA,NA,image-keyboard-response,81,430804,0.0-7.0-0.0-0.3,52,Study 52,Session 52,NA,3095,img/testing_events/Ca/Test_Ca_Event_8.jpg,n,response,n,NA,TRUE,Ca
NA,NA,NA,NA,NA,image-keyboard-response,82,437085,0.0-7.0-0.0-0.4,52,Study 52,Session 52,NA,6281,img/testing_events/Ca/Test_Ca_Event_6.jpg,u,response,u,NA,TRUE,Ca
NA,NA,NA,NA,NA,image-keyboard-response,83,442011,0.0-7.0-0.0-0.5,52,Study 52,Session 52,NA,4925,img/testing_events/Ca/Test_Ca_Event_2.jpg,u,response,u,NA,TRUE,Ca
NA,NA,NA,NA,NA,image-keyboard-response,84,450961,0.0-7.0-0.0-0.6,52,Study 52,Session 52,NA,8949,img/testing_events/Ca/Test_Ca_Event_24.jpg,e,response,n,NA,FALSE,Ca
NA,NA,NA,NA,NA,image-keyboard-response,85,452922,0.0-7.0-0.0-0.7,52,Study 52,Session 52,NA,1960,img/testing_events/Ca/Test_Ca_Event_20.jpg,n,response,n,NA,TRUE,Ca
NA,NA,NA,NA,NA,image-keyboard-response,86,457837,0.0-7.0-0.0-0.8,52,Study 52,Session 52,NA,4914,img/testing_events/Ca/Test_Ca_Event_4.jpg,e,response,n,NA,FALSE,Ca
NA,NA,NA,NA,NA,image-keyboard-response,87,462319,0.0-7.0-0.0-0.9,52,Study 52,Session 52,NA,4481,img/testing_events/Ca/Test_Ca_Event_17.jpg,u,response,e,NA,FALSE,Ca
NA,NA,NA,NA,NA,image-keyboard-response,88,465104,0.0-7.0-0.0-0.10,52,Study 52,Session 52,NA,2784,img/testing_events/Ca/Test_Ca_Event_22.jpg,u,response,u,NA,TRUE,Ca
NA,NA,NA,NA,NA,image-keyboard-response,89,469158,0.0-7.0-0.0-0.11,52,Study 52,Session 52,NA,4053,img/testing_events/Ca/Test_Ca_Event_12.jpg,n,response,n,NA,TRUE,Ca
NA,NA,NA,NA,NA,image-keyboard-response,90,470814,0.0-7.0-0.0-0.12,52,Study 52,Session 52,NA,1655,img/testing_events/Ca/Test_Ca_Event_11.jpg,c,response,c,NA,TRUE,Ca
NA,NA,NA,NA,NA,image-keyboard-response,91,475406,0.0-7.0-0.0-0.13,52,Study 52,Session 52,NA,4592,img/testing_events/Ca/Test_Ca_Event_7.jpg,c,response,c,NA,TRUE,Ca
NA,NA,NA,NA,NA,image-keyboard-response,92,481461,0.0-7.0-0.0-0.14,52,Study 52,Session 52,NA,6054,img/testing_events/Ca/Test_Ca_Event_10.jpg,e,response,u,NA,FALSE,Ca
NA,NA,NA,NA,NA,image-keyboard-response,93,486888,0.0-7.0-0.0-0.15,52,Study 52,Session 52,NA,5427,img/testing_events/Ca/Test_Ca_Event_3.jpg,c,response,c,NA,TRUE,Ca
NA,NA,NA,NA,NA,image-keyboard-response,94,489576,0.0-7.0-0.0-0.16,52,Study 52,Session 52,NA,2687,img/testing_events/Ca/Test_Ca_Event_13.jpg,e,response,e,NA,TRUE,Ca
NA,NA,NA,NA,NA,image-keyboard-response,95,491235,0.0-7.0-0.0-0.17,52,Study 52,Session 52,NA,1658,img/testing_events/Ca/Test_Ca_Event_9.jpg,e,response,e,NA,TRUE,Ca
NA,NA,NA,NA,NA,image-keyboard-response,96,494733,0.0-7.0-0.0-0.18,52,Study 52,Session 52,NA,3498,img/testing_events/Ca/Test_Ca_Event_15.jpg,e,response,c,NA,FALSE,Ca
NA,NA,NA,NA,NA,image-keyboard-response,97,497289,0.0-7.0-0.0-0.19,52,Study 52,Session 52,NA,2556,img/testing_events/Ca/Test_Ca_Event_19.jpg,c,response,c,NA,TRUE,Ca
NA,NA,NA,NA,NA,image-keyboard-response,98,501317,0.0-7.0-0.0-0.20,52,Study 52,Session 52,NA,4027,img/testing_events/Ca/Test_Ca_Event_5.jpg,u,response,e,NA,FALSE,Ca
NA,NA,NA,NA,NA,image-keyboard-response,99,502736,0.0-7.0-0.0-0.21,52,Study 52,Session 52,NA,1418,img/testing_events/Ca/Test_Ca_Event_16.jpg,n,response,n,NA,TRUE,Ca
NA,NA,NA,NA,NA,image-keyboard-response,100,508060,0.0-7.0-0.0-0.22,52,Study 52,Session 52,NA,5324,img/testing_events/Ca/Test_Ca_Event_18.jpg,u,response,u,NA,TRUE,Ca
NA,NA,NA,NA,NA,image-keyboard-response,101,511603,0.0-7.0-0.0-0.23,52,Study 52,Session 52,NA,3542,img/testing_events/Ca/Test_Ca_Event_14.jpg,e,response,u,NA,FALSE,Ca
NA,NA,NA,NA,NA,image-keyboard-response,102,514889,0.0-7.0-1.0-0.0,52,Study 52,Session 52,NA,3286,img/testing_events/Ac/Test_Ac_Event_11.jpg,n,response,n,NA,TRUE,Ac
NA,NA,NA,NA,NA,image-keyboard-response,103,518491,0.0-7.0-1.0-0.1,52,Study 52,Session 52,NA,3601,img/testing_events/Ac/Test_Ac_Event_20.jpg,e,response,e,NA,TRUE,Ac
NA,NA,NA,NA,NA,image-keyboard-response,104,521355,0.0-7.0-1.0-0.2,52,Study 52,Session 52,NA,2864,img/testing_events/Ac/Test_Ac_Event_21.jpg,u,response,u,NA,TRUE,Ac
NA,NA,NA,NA,NA,image-keyboard-response,105,522685,0.0-7.0-1.0-0.3,52,Study 52,Session 52,NA,1329,img/testing_events/Ac/Test_Ac_Event_1.jpg,u,response,u,NA,TRUE,Ac
NA,NA,NA,NA,NA,image-keyboard-response,106,524086,0.0-7.0-1.0-0.4,52,Study 52,Session 52,NA,1400,img/testing_events/Ac/Test_Ac_Event_9.jpg,u,response,u,NA,TRUE,Ac
NA,NA,NA,NA,NA,image-keyboard-response,107,530336,0.0-7.0-1.0-0.5,52,Study 52,Session 52,NA,6249,img/testing_events/Ac/Test_Ac_Event_10.jpg,c,response,c,NA,TRUE,Ac
NA,NA,NA,NA,NA,image-keyboard-response,108,533924,0.0-7.0-1.0-0.6,52,Study 52,Session 52,NA,3588,img/testing_events/Ac/Test_Ac_Event_3.jpg,e,response,n,NA,FALSE,Ac
NA,NA,NA,NA,NA,image-keyboard-response,109,535051,0.0-7.0-1.0-0.7,52,Study 52,Session 52,NA,1127,img/testing_events/Ac/Test_Ac_Event_16.jpg,e,response,e,NA,TRUE,Ac
NA,NA,NA,NA,NA,image-keyboard-response,110,537664,0.0-7.0-1.0-0.8,52,Study 52,Session 52,NA,2612,img/testing_events/Ac/Test_Ac_Event_24.jpg,e,response,e,NA,TRUE,Ac
NA,NA,NA,NA,NA,image-keyboard-response,111,539967,0.0-7.0-1.0-0.9,52,Study 52,Session 52,NA,2302,img/testing_events/Ac/Test_Ac_Event_15.jpg,e,response,n,NA,FALSE,Ac
NA,NA,NA,NA,NA,image-keyboard-response,112,542058,0.0-7.0-1.0-0.10,52,Study 52,Session 52,NA,2091,img/testing_events/Ac/Test_Ac_Event_22.jpg,c,response,c,NA,TRUE,Ac
NA,NA,NA,NA,NA,image-keyboard-response,113,545217,0.0-7.0-1.0-0.11,52,Study 52,Session 52,NA,3158,img/testing_events/Ac/Test_Ac_Event_5.jpg,c,response,u,NA,FALSE,Ac
NA,NA,NA,NA,NA,image-keyboard-response,114,546987,0.0-7.0-1.0-0.12,52,Study 52,Session 52,NA,1770,img/testing_events/Ac/Test_Ac_Event_7.jpg,n,response,n,NA,TRUE,Ac
NA,NA,NA,NA,NA,image-keyboard-response,115,550143,0.0-7.0-1.0-0.13,52,Study 52,Session 52,NA,3156,img/testing_events/Ac/Test_Ac_Event_19.jpg,n,response,n,NA,TRUE,Ac
NA,NA,NA,NA,NA,image-keyboard-response,116,552132,0.0-7.0-1.0-0.14,52,Study 52,Session 52,NA,1988,img/testing_events/Ac/Test_Ac_Event_14.jpg,c,response,c,NA,TRUE,Ac
NA,NA,NA,NA,NA,image-keyboard-response,117,554443,0.0-7.0-1.0-0.15,52,Study 52,Session 52,NA,2311,img/testing_events/Ac/Test_Ac_Event_17.jpg,u,response,u,NA,TRUE,Ac
NA,NA,NA,NA,NA,image-keyboard-response,118,555567,0.0-7.0-1.0-0.16,52,Study 52,Session 52,NA,1123,img/testing_events/Ac/Test_Ac_Event_8.jpg,e,response,e,NA,TRUE,Ac
NA,NA,NA,NA,NA,image-keyboard-response,119,559146,0.0-7.0-1.0-0.17,52,Study 52,Session 52,NA,3578,img/testing_events/Ac/Test_Ac_Event_4.jpg,e,response,e,NA,TRUE,Ac
NA,NA,NA,NA,NA,image-keyboard-response,120,565009,0.0-7.0-1.0-0.18,52,Study 52,Session 52,NA,5862,img/testing_events/Ac/Test_Ac_Event_2.jpg,c,response,c,NA,TRUE,Ac
NA,NA,NA,NA,NA,image-keyboard-response,121,569790,0.0-7.0-1.0-0.19,52,Study 52,Session 52,NA,4781,img/testing_events/Ac/Test_Ac_Event_23.jpg,n,response,n,NA,TRUE,Ac
NA,NA,NA,NA,NA,image-keyboard-response,122,575448,0.0-7.0-1.0-0.20,52,Study 52,Session 52,NA,5657,img/testing_events/Ac/Test_Ac_Event_12.jpg,e,response,e,NA,TRUE,Ac
NA,NA,NA,NA,NA,image-keyboard-response,123,578652,0.0-7.0-1.0-0.21,52,Study 52,Session 52,NA,3202,img/testing_events/Ac/Test_Ac_Event_18.jpg,c,response,c,NA,TRUE,Ac
NA,NA,NA,NA,NA,image-keyboard-response,124,580454,0.0-7.0-1.0-0.22,52,Study 52,Session 52,NA,1802,img/testing_events/Ac/Test_Ac_Event_6.jpg,c,response,c,NA,TRUE,Ac
NA,NA,NA,NA,NA,image-keyboard-response,125,582652,0.0-7.0-1.0-0.23,52,Study 52,Session 52,NA,2197,img/testing_events/Ac/Test_Ac_Event_13.jpg,u,response,u,NA,TRUE,Ac
NA,NA,NA,NA,NA,image-keyboard-response,126,587130,0.0-7.0-2.0-0.0,52,Study 52,Session 52,NA,4478,img/testing_events/Ab/Test_Ab_Event_12.jpg,n,response,n,NA,TRUE,Ab
NA,NA,NA,NA,NA,image-keyboard-response,127,589842,0.0-7.0-2.0-0.1,52,Study 52,Session 52,NA,2711,img/testing_events/Ab/Test_Ab_Event_15.jpg,c,response,c,NA,TRUE,Ab
NA,NA,NA,NA,NA,image-keyboard-response,128,591263,0.0-7.0-2.0-0.2,52,Study 52,Session 52,NA,1420,img/testing_events/Ab/Test_Ab_Event_23.jpg,c,response,c,NA,TRUE,Ab
NA,NA,NA,NA,NA,image-keyboard-response,129,595563,0.0-7.0-2.0-0.3,52,Study 52,Session 52,NA,4299,img/testing_events/Ab/Test_Ab_Event_21.jpg,e,response,e,NA,TRUE,Ab
NA,NA,NA,NA,NA,image-keyboard-response,130,597775,0.0-7.0-2.0-0.4,52,Study 52,Session 52,NA,2211,img/testing_events/Ab/Test_Ab_Event_10.jpg,u,response,u,NA,TRUE,Ab
NA,NA,NA,NA,NA,image-keyboard-response,131,599246,0.0-7.0-2.0-0.5,52,Study 52,Session 52,NA,1470,img/testing_events/Ab/Test_Ab_Event_11.jpg,c,response,c,NA,TRUE,Ab
NA,NA,NA,NA,NA,image-keyboard-response,132,601014,0.0-7.0-2.0-0.6,52,Study 52,Session 52,NA,1767,img/testing_events/Ab/Test_Ab_Event_6.jpg,u,response,u,NA,TRUE,Ab
NA,NA,NA,NA,NA,image-keyboard-response,133,602849,0.0-7.0-2.0-0.7,52,Study 52,Session 52,NA,1835,img/testing_events/Ab/Test_Ab_Event_8.jpg,n,response,n,NA,TRUE,Ab
NA,NA,NA,NA,NA,image-keyboard-response,134,604928,0.0-7.0-2.0-0.8,52,Study 52,Session 52,NA,2078,img/testing_events/Ab/Test_Ab_Event_19.jpg,c,response,c,NA,TRUE,Ab
NA,NA,NA,NA,NA,image-keyboard-response,135,607735,0.0-7.0-2.0-0.9,52,Study 52,Session 52,NA,2807,img/testing_events/Ab/Test_Ab_Event_18.jpg,u,response,u,NA,TRUE,Ab
NA,NA,NA,NA,NA,image-keyboard-response,136,610399,0.0-7.0-2.0-0.10,52,Study 52,Session 52,NA,2663,img/testing_events/Ab/Test_Ab_Event_7.jpg,c,response,c,NA,TRUE,Ab
NA,NA,NA,NA,NA,image-keyboard-response,137,614553,0.0-7.0-2.0-0.11,52,Study 52,Session 52,NA,4152,img/testing_events/Ab/Test_Ab_Event_2.jpg,u,response,u,NA,TRUE,Ab
NA,NA,NA,NA,NA,image-keyboard-response,138,620723,0.0-7.0-2.0-0.12,52,Study 52,Session 52,NA,6170,img/testing_events/Ab/Test_Ab_Event_1.jpg,e,response,e,NA,TRUE,Ab
NA,NA,NA,NA,NA,image-keyboard-response,139,623818,0.0-7.0-2.0-0.13,52,Study 52,Session 52,NA,3095,img/testing_events/Ab/Test_Ab_Event_9.jpg,e,response,e,NA,TRUE,Ab
NA,NA,NA,NA,NA,image-keyboard-response,140,626109,0.0-7.0-2.0-0.14,52,Study 52,Session 52,NA,2290,img/testing_events/Ab/Test_Ab_Event_16.jpg,n,response,n,NA,TRUE,Ab
NA,NA,NA,NA,NA,image-keyboard-response,141,627648,0.0-7.0-2.0-0.15,52,Study 52,Session 52,NA,1539,img/testing_events/Ab/Test_Ab_Event_5.jpg,e,response,e,NA,TRUE,Ab
NA,NA,NA,NA,NA,image-keyboard-response,142,628892,0.0-7.0-2.0-0.16,52,Study 52,Session 52,NA,1243,img/testing_events/Ab/Test_Ab_Event_20.jpg,n,response,n,NA,TRUE,Ab
NA,NA,NA,NA,NA,image-keyboard-response,143,630062,0.0-7.0-2.0-0.17,52,Study 52,Session 52,NA,1169,img/testing_events/Ab/Test_Ab_Event_13.jpg,e,response,e,NA,TRUE,Ab
NA,NA,NA,NA,NA,image-keyboard-response,144,631893,0.0-7.0-2.0-0.18,52,Study 52,Session 52,NA,1831,img/testing_events/Ab/Test_Ab_Event_14.jpg,u,response,u,NA,TRUE,Ab
NA,NA,NA,NA,NA,image-keyboard-response,145,634442,0.0-7.0-2.0-0.19,52,Study 52,Session 52,NA,2548,img/testing_events/Ab/Test_Ab_Event_3.jpg,c,response,c,NA,TRUE,Ab
NA,NA,NA,NA,NA,image-keyboard-response,146,636761,0.0-7.0-2.0-0.20,52,Study 52,Session 52,NA,2319,img/testing_events/Ab/Test_Ab_Event_17.jpg,e,response,e,NA,TRUE,Ab
NA,NA,NA,NA,NA,image-keyboard-response,147,640901,0.0-7.0-2.0-0.21,52,Study 52,Session 52,NA,4139,img/testing_events/Ab/Test_Ab_Event_4.jpg,n,response,n,NA,TRUE,Ab
NA,NA,NA,NA,NA,image-keyboard-response,148,643381,0.0-7.0-2.0-0.22,52,Study 52,Session 52,NA,2480,img/testing_events/Ab/Test_Ab_Event_24.jpg,n,response,n,NA,TRUE,Ab
NA,NA,NA,NA,NA,image-keyboard-response,149,644743,0.0-7.0-2.0-0.23,52,Study 52,Session 52,NA,1361,img/testing_events/Ab/Test_Ab_Event_22.jpg,u,response,u,NA,TRUE,Ab
NA,NA,NA,NA,NA,image-keyboard-response,150,645963,0.0-7.0-3.0-0.0,52,Study 52,Session 52,NA,1219,img/testing_events/Ba/Test_Ba_Event_15.jpg,e,response,e,NA,TRUE,Ba
NA,NA,NA,NA,NA,image-keyboard-response,151,647482,0.0-7.0-3.0-0.1,52,Study 52,Session 52,NA,1519,img/testing_events/Ba/Test_Ba_Event_17.jpg,c,response,c,NA,TRUE,Ba
NA,NA,NA,NA,NA,image-keyboard-response,152,649138,0.0-7.0-3.0-0.2,52,Study 52,Session 52,NA,1655,img/testing_events/Ba/Test_Ba_Event_7.jpg,e,response,e,NA,TRUE,Ba
NA,NA,NA,NA,NA,image-keyboard-response,153,650605,0.0-7.0-3.0-0.3,52,Study 52,Session 52,NA,1467,img/testing_events/Ba/Test_Ba_Event_10.jpg,n,response,n,NA,TRUE,Ba
NA,NA,NA,NA,NA,image-keyboard-response,154,652924,0.0-7.0-3.0-0.4,52,Study 52,Session 52,NA,2319,img/testing_events/Ba/Test_Ba_Event_24.jpg,c,response,u,NA,FALSE,Ba
NA,NA,NA,NA,NA,image-keyboard-response,155,655925,0.0-7.0-3.0-0.5,52,Study 52,Session 52,NA,3001,img/testing_events/Ba/Test_Ba_Event_2.jpg,n,response,n,NA,TRUE,Ba
NA,NA,NA,NA,NA,image-keyboard-response,156,658101,0.0-7.0-3.0-0.6,52,Study 52,Session 52,NA,2175,img/testing_events/Ba/Test_Ba_Event_6.jpg,n,response,n,NA,TRUE,Ba
NA,NA,NA,NA,NA,image-keyboard-response,157,659526,0.0-7.0-3.0-0.7,52,Study 52,Session 52,NA,1424,img/testing_events/Ba/Test_Ba_Event_13.jpg,c,response,c,NA,TRUE,Ba
NA,NA,NA,NA,NA,image-keyboard-response,158,661235,0.0-7.0-3.0-0.8,52,Study 52,Session 52,NA,1708,img/testing_events/Ba/Test_Ba_Event_9.jpg,c,response,c,NA,TRUE,Ba
NA,NA,NA,NA,NA,image-keyboard-response,159,665158,0.0-7.0-3.0-0.9,52,Study 52,Session 52,NA,3923,img/testing_events/Ba/Test_Ba_Event_1.jpg,c,response,c,NA,TRUE,Ba
NA,NA,NA,NA,NA,image-keyboard-response,160,666460,0.0-7.0-3.0-0.10,52,Study 52,Session 52,NA,1301,img/testing_events/Ba/Test_Ba_Event_16.jpg,u,response,u,NA,TRUE,Ba
NA,NA,NA,NA,NA,image-keyboard-response,161,668281,0.0-7.0-3.0-0.11,52,Study 52,Session 52,NA,1821,img/testing_events/Ba/Test_Ba_Event_8.jpg,u,response,u,NA,TRUE,Ba
NA,NA,NA,NA,NA,image-keyboard-response,162,669395,0.0-7.0-3.0-0.12,52,Study 52,Session 52,NA,1113,img/testing_events/Ba/Test_Ba_Event_20.jpg,u,response,u,NA,TRUE,Ba
NA,NA,NA,NA,NA,image-keyboard-response,163,670723,0.0-7.0-3.0-0.13,52,Study 52,Session 52,NA,1328,img/testing_events/Ba/Test_Ba_Event_23.jpg,e,response,e,NA,TRUE,Ba
NA,NA,NA,NA,NA,image-keyboard-response,164,672234,0.0-7.0-3.0-0.14,52,Study 52,Session 52,NA,1510,img/testing_events/Ba/Test_Ba_Event_21.jpg,c,response,c,NA,TRUE,Ba
NA,NA,NA,NA,NA,image-keyboard-response,165,675267,0.0-7.0-3.0-0.15,52,Study 52,Session 52,NA,3032,img/testing_events/Ba/Test_Ba_Event_5.jpg,c,response,c,NA,TRUE,Ba
NA,NA,NA,NA,NA,image-keyboard-response,166,677301,0.0-7.0-3.0-0.16,52,Study 52,Session 52,NA,2033,img/testing_events/Ba/Test_Ba_Event_14.jpg,n,response,n,NA,TRUE,Ba
NA,NA,NA,NA,NA,image-keyboard-response,167,678795,0.0-7.0-3.0-0.17,52,Study 52,Session 52,NA,1494,img/testing_events/Ba/Test_Ba_Event_18.jpg,n,response,n,NA,TRUE,Ba
NA,NA,NA,NA,NA,image-keyboard-response,168,680141,0.0-7.0-3.0-0.18,52,Study 52,Session 52,NA,1345,img/testing_events/Ba/Test_Ba_Event_22.jpg,n,response,n,NA,TRUE,Ba
NA,NA,NA,NA,NA,image-keyboard-response,169,681231,0.0-7.0-3.0-0.19,52,Study 52,Session 52,NA,1089,img/testing_events/Ba/Test_Ba_Event_12.jpg,u,response,u,NA,TRUE,Ba
NA,NA,NA,NA,NA,image-keyboard-response,170,682456,0.0-7.0-3.0-0.20,52,Study 52,Session 52,NA,1224,img/testing_events/Ba/Test_Ba_Event_11.jpg,e,response,e,NA,TRUE,Ba
NA,NA,NA,NA,NA,image-keyboard-response,171,685457,0.0-7.0-3.0-0.21,52,Study 52,Session 52,NA,3000,img/testing_events/Ba/Test_Ba_Event_4.jpg,u,response,u,NA,TRUE,Ba
NA,NA,NA,NA,NA,image-keyboard-response,172,686661,0.0-7.0-3.0-0.22,52,Study 52,Session 52,NA,1203,img/testing_events/Ba/Test_Ba_Event_19.jpg,e,response,e,NA,TRUE,Ba
NA,NA,NA,NA,NA,image-keyboard-response,173,687912,0.0-7.0-3.0-0.23,52,Study 52,Session 52,NA,1251,img/testing_events/Ba/Test_Ba_Event_3.jpg,e,response,e,NA,TRUE,Ba
NA,NA,NA,NA,NA,image-keyboard-response,174,690260,0.0-7.0-4.0-0.0,52,Study 52,Session 52,NA,2347,img/testing_events/Cb/Test_Cb_Event_7.jpg,c,response,n,NA,FALSE,Cb
NA,NA,NA,NA,NA,image-keyboard-response,175,694718,0.0-7.0-4.0-0.1,52,Study 52,Session 52,NA,4458,img/testing_events/Cb/Test_Cb_Event_21.jpg,e,response,u,NA,FALSE,Cb
NA,NA,NA,NA,NA,image-keyboard-response,176,696423,0.0-7.0-4.0-0.2,52,Study 52,Session 52,NA,1705,img/testing_events/Cb/Test_Cb_Event_2.jpg,c,response,c,NA,TRUE,Cb
NA,NA,NA,NA,NA,image-keyboard-response,177,698253,0.0-7.0-4.0-0.3,52,Study 52,Session 52,NA,1829,img/testing_events/Cb/Test_Cb_Event_23.jpg,n,response,n,NA,TRUE,Cb
NA,NA,NA,NA,NA,image-keyboard-response,178,699383,0.0-7.0-4.0-0.4,52,Study 52,Session 52,NA,1130,img/testing_events/Cb/Test_Cb_Event_11.jpg,n,response,n,NA,TRUE,Cb
NA,NA,NA,NA,NA,image-keyboard-response,179,700705,0.0-7.0-4.0-0.5,52,Study 52,Session 52,NA,1321,img/testing_events/Cb/Test_Cb_Event_9.jpg,u,response,u,NA,TRUE,Cb
NA,NA,NA,NA,NA,image-keyboard-response,180,703549,0.0-7.0-4.0-0.6,52,Study 52,Session 52,NA,2844,img/testing_events/Cb/Test_Cb_Event_1.jpg,u,response,u,NA,TRUE,Cb
NA,NA,NA,NA,NA,image-keyboard-response,181,706334,0.0-7.0-4.0-0.7,52,Study 52,Session 52,NA,2784,img/testing_events/Cb/Test_Cb_Event_18.jpg,c,response,c,NA,TRUE,Cb
NA,NA,NA,NA,NA,image-keyboard-response,182,707668,0.0-7.0-4.0-0.8,52,Study 52,Session 52,NA,1334,img/testing_events/Cb/Test_Cb_Event_19.jpg,n,response,n,NA,TRUE,Cb
NA,NA,NA,NA,NA,image-keyboard-response,183,709697,0.0-7.0-4.0-0.9,52,Study 52,Session 52,NA,2029,img/testing_events/Cb/Test_Cb_Event_15.jpg,e,response,n,NA,FALSE,Cb
NA,NA,NA,NA,NA,image-keyboard-response,184,711918,0.0-7.0-4.0-0.10,52,Study 52,Session 52,NA,2220,img/testing_events/Cb/Test_Cb_Event_4.jpg,u,response,e,NA,FALSE,Cb
NA,NA,NA,NA,NA,image-keyboard-response,185,713094,0.0-7.0-4.0-0.11,52,Study 52,Session 52,NA,1175,img/testing_events/Cb/Test_Cb_Event_13.jpg,u,response,u,NA,TRUE,Cb
NA,NA,NA,NA,NA,image-keyboard-response,186,716031,0.0-7.0-4.0-0.12,52,Study 52,Session 52,NA,2937,img/testing_events/Cb/Test_Cb_Event_12.jpg,e,response,e,NA,TRUE,Cb
NA,NA,NA,NA,NA,image-keyboard-response,187,718235,0.0-7.0-4.0-0.13,52,Study 52,Session 52,NA,2202,img/testing_events/Cb/Test_Cb_Event_8.jpg,e,response,e,NA,TRUE,Cb
NA,NA,NA,NA,NA,image-keyboard-response,188,719218,0.0-7.0-4.0-0.14,52,Study 52,Session 52,NA,982,img/testing_events/Cb/Test_Cb_Event_16.jpg,e,response,e,NA,TRUE,Cb
NA,NA,NA,NA,NA,image-keyboard-response,189,720764,0.0-7.0-4.0-0.15,52,Study 52,Session 52,NA,1545,img/testing_events/Cb/Test_Cb_Event_17.jpg,u,response,u,NA,TRUE,Cb
NA,NA,NA,NA,NA,image-keyboard-response,190,722354,0.0-7.0-4.0-0.16,52,Study 52,Session 52,NA,1589,img/testing_events/Cb/Test_Cb_Event_24.jpg,u,response,e,NA,FALSE,Cb
NA,NA,NA,NA,NA,image-keyboard-response,191,727854,0.0-7.0-4.0-0.17,52,Study 52,Session 52,NA,5499,img/testing_events/Cb/Test_Cb_Event_14.jpg,c,response,c,NA,TRUE,Cb
NA,NA,NA,NA,NA,image-keyboard-response,192,729730,0.0-7.0-4.0-0.18,52,Study 52,Session 52,NA,1875,img/testing_events/Cb/Test_Cb_Event_3.jpg,u,response,n,NA,FALSE,Cb
NA,NA,NA,NA,NA,image-keyboard-response,193,731901,0.0-7.0-4.0-0.19,52,Study 52,Session 52,NA,2171,img/testing_events/Cb/Test_Cb_Event_10.jpg,u,response,c,NA,FALSE,Cb
NA,NA,NA,NA,NA,image-keyboard-response,194,733107,0.0-7.0-4.0-0.20,52,Study 52,Session 52,NA,1205,img/testing_events/Cb/Test_Cb_Event_20.jpg,e,response,e,NA,TRUE,Cb
NA,NA,NA,NA,NA,image-keyboard-response,195,735353,0.0-7.0-4.0-0.21,52,Study 52,Session 52,NA,2245,img/testing_events/Cb/Test_Cb_Event_22.jpg,c,response,c,NA,TRUE,Cb
NA,NA,NA,NA,NA,image-keyboard-response,196,737117,0.0-7.0-4.0-0.22,52,Study 52,Session 52,NA,1764,img/testing_events/Cb/Test_Cb_Event_5.jpg,u,response,u,NA,TRUE,Cb
NA,NA,NA,NA,NA,image-keyboard-response,197,739964,0.0-7.0-4.0-0.23,52,Study 52,Session 52,NA,2846,img/testing_events/Cb/Test_Cb_Event_6.jpg,c,response,c,NA,TRUE,Cb
NA,NA,NA,NA,NA,image-keyboard-response,198,741519,0.0-7.0-5.0-0.0,52,Study 52,Session 52,NA,1554,img/testing_events/Bc/Test_Bc_Event_18.jpg,e,response,e,NA,TRUE,Bc
NA,NA,NA,NA,NA,image-keyboard-response,199,742971,0.0-7.0-5.0-0.1,52,Study 52,Session 52,NA,1451,img/testing_events/Bc/Test_Bc_Event_9.jpg,n,response,n,NA,TRUE,Bc
NA,NA,NA,NA,NA,image-keyboard-response,200,745500,0.0-7.0-5.0-0.2,52,Study 52,Session 52,NA,2528,img/testing_events/Bc/Test_Bc_Event_10.jpg,e,response,e,NA,TRUE,Bc
NA,NA,NA,NA,NA,image-keyboard-response,201,747853,0.0-7.0-5.0-0.3,52,Study 52,Session 52,NA,2352,img/testing_events/Bc/Test_Bc_Event_3.jpg,u,response,u,NA,TRUE,Bc
NA,NA,NA,NA,NA,image-keyboard-response,202,749105,0.0-7.0-5.0-0.4,52,Study 52,Session 52,NA,1251,img/testing_events/Bc/Test_Bc_Event_17.jpg,n,response,n,NA,TRUE,Bc
NA,NA,NA,NA,NA,image-keyboard-response,203,751743,0.0-7.0-5.0-0.5,52,Study 52,Session 52,NA,2637,img/testing_events/Bc/Test_Bc_Event_24.jpg,e,response,c,NA,FALSE,Bc
NA,NA,NA,NA,NA,image-keyboard-response,204,752933,0.0-7.0-5.0-0.6,52,Study 52,Session 52,NA,1190,img/testing_events/Bc/Test_Bc_Event_20.jpg,c,response,c,NA,TRUE,Bc
NA,NA,NA,NA,NA,image-keyboard-response,205,755817,0.0-7.0-5.0-0.7,52,Study 52,Session 52,NA,2882,img/testing_events/Bc/Test_Bc_Event_7.jpg,e,response,u,NA,FALSE,Bc
NA,NA,NA,NA,NA,image-keyboard-response,206,758393,0.0-7.0-5.0-0.8,52,Study 52,Session 52,NA,2575,img/testing_events/Bc/Test_Bc_Event_8.jpg,c,response,c,NA,TRUE,Bc
NA,NA,NA,NA,NA,image-keyboard-response,207,760049,0.0-7.0-5.0-0.9,52,Study 52,Session 52,NA,1655,img/testing_events/Bc/Test_Bc_Event_21.jpg,n,response,n,NA,TRUE,Bc
NA,NA,NA,NA,NA,image-keyboard-response,208,761596,0.0-7.0-5.0-0.10,52,Study 52,Session 52,NA,1546,img/testing_events/Bc/Test_Bc_Event_16.jpg,c,response,c,NA,TRUE,Bc
NA,NA,NA,NA,NA,image-keyboard-response,209,763322,0.0-7.0-5.0-0.11,52,Study 52,Session 52,NA,1725,img/testing_events/Bc/Test_Bc_Event_1.jpg,e,response,n,NA,FALSE,Bc
NA,NA,NA,NA,NA,image-keyboard-response,210,764951,0.0-7.0-5.0-0.12,52,Study 52,Session 52,NA,1628,img/testing_events/Bc/Test_Bc_Event_19.jpg,u,response,u,NA,TRUE,Bc
NA,NA,NA,NA,NA,image-keyboard-response,211,766120,0.0-7.0-5.0-0.13,52,Study 52,Session 52,NA,1168,img/testing_events/Bc/Test_Bc_Event_6.jpg,e,response,e,NA,TRUE,Bc
NA,NA,NA,NA,NA,image-keyboard-response,212,767997,0.0-7.0-5.0-0.14,52,Study 52,Session 52,NA,1877,img/testing_events/Bc/Test_Bc_Event_15.jpg,c,response,u,NA,FALSE,Bc
NA,NA,NA,NA,NA,image-keyboard-response,213,770296,0.0-7.0-5.0-0.15,52,Study 52,Session 52,NA,2298,img/testing_events/Bc/Test_Bc_Event_11.jpg,u,response,u,NA,TRUE,Bc
NA,NA,NA,NA,NA,image-keyboard-response,214,771536,0.0-7.0-5.0-0.16,52,Study 52,Session 52,NA,1240,img/testing_events/Bc/Test_Bc_Event_13.jpg,n,response,n,NA,TRUE,Bc
NA,NA,NA,NA,NA,image-keyboard-response,215,772359,0.0-7.0-5.0-0.17,52,Study 52,Session 52,NA,822,img/testing_events/Bc/Test_Bc_Event_22.jpg,e,response,e,NA,TRUE,Bc
NA,NA,NA,NA,NA,image-keyboard-response,216,774200,0.0-7.0-5.0-0.18,52,Study 52,Session 52,NA,1841,img/testing_events/Bc/Test_Bc_Event_14.jpg,e,response,e,NA,TRUE,Bc
NA,NA,NA,NA,NA,image-keyboard-response,217,777184,0.0-7.0-5.0-0.19,52,Study 52,Session 52,NA,2983,img/testing_events/Bc/Test_Bc_Event_12.jpg,n,response,c,NA,FALSE,Bc
NA,NA,NA,NA,NA,image-keyboard-response,218,780096,0.0-7.0-5.0-0.20,52,Study 52,Session 52,NA,2912,img/testing_events/Bc/Test_Bc_Event_5.jpg,n,response,n,NA,TRUE,Bc
NA,NA,NA,NA,NA,image-keyboard-response,219,781558,0.0-7.0-5.0-0.21,52,Study 52,Session 52,NA,1461,img/testing_events/Bc/Test_Bc_Event_23.jpg,u,response,u,NA,TRUE,Bc
NA,NA,NA,NA,NA,image-keyboard-response,220,783253,0.0-7.0-5.0-0.22,52,Study 52,Session 52,NA,1694,img/testing_events/Bc/Test_Bc_Event_2.jpg,c,response,e,NA,FALSE,Bc
NA,NA,NA,NA,NA,image-keyboard-response,221,787311,0.0-7.0-5.0-0.23,52,Study 52,Session 52,NA,4057,img/testing_events/Bc/Test_Bc_Event_4.jpg,u,response,c,NA,FALSE,Bc
NA,NA,NA,NA,NA,survey-text,222,799356,0.0-8.0,52,Study 52,Session 52,NA,12037,NA,"{""Q0"":""No"",""Q1"":""No"",""Q2"":""n/a""}",NA,NA,NA,NA,NA
NA,NA,NA,NA,NA,survey-html-form,223,820238,0.0-9.0,52,Study 52,Session 52,NA,20881,NA,"{""Gender"":""Female"",""Age"":""24"",""ColorBlind"":""No"",""Education"":""Bachelors degree"",""Income"":""$75,000-$99,999"",""Race"":""White"",""Fluent"":""Yes"",""AgeEnglish"":""0"",""Country"":""USA""}",NA,NA,NA,NA,NA
TRUE,NA,NA,NA,NA,fullscreen,224,820239,0.0-10.0,52,Study 52,Session 52,NA,NA,NA,NA,NA,NA,NA,NA,NA
