success,timeout,failed_images,failed_audio,failed_video,trial_type,trial_index,time_elapsed,internal_node_id,subject_id,study_id,session_id,view_history,rt,stimulus,response,task,correct_response,attention_duration,correct,retrieval_group
TRUE,FALSE,[],[],[],preload,0,16508,0.0-0.0,53,Study 53,Session 53,NA,NA,NA,NA,NA,NA,NA,NA,NA
TRUE,NA,NA,NA,NA,fullscreen,1,27685,0.0-1.0,53,Study 53,Session 53,NA,NA,NA,NA,NA,NA,NA,NA,NA
NA,NA,NA,NA,NA,instructions,2,36926,0.0-2.0,53,Study 53,Session 53,"[{""page_index"":0,""viewing_time"":9239}]",9240,NA,NA,NA,NA,NA,NA,NA
NA,NA,NA,NA,NA,html-keyboard-response,3,50491,0.0-3.0,53,Study 53,Session 53,NA,13564,"Welcome to the experiment. <br /><br />This experiment will take about 20 minutes. Please complete all in one sitting. <br /><br />For this study, <strong>please use</strong> a laptop or desktop computer (not a mobile phone or tablet). Also, please use either <u>Chrome or Firefox</u>. <br /><br />Once you begin, <strong>DO NOT</strong> refresh the browser, as the experiment will reset and you will lose your progress. <br /><br />Press the <strong class=""upperline"">B</strong> key on your keyboard to begin.",b,NA,NA,NA,NA,NA
NA,NA,NA,NA,NA,instructions,4,136060,0.0-4.0,53,Study 53,Session 53,"[{""page_index"":0,""viewing_time"":9611},{""page_index"":1,""viewing_time"":13150},{""page_index"":2,""viewing_time"":61802}]",84563,NA,NA,NA,NA,NA,NA,NA
NA,NA,NA,NA,NA,html-keyboard-response,5,139066,0.0-5.0-0.0,53,Study 53,Session 53,NA,null,"<div style=""font-size:60px;"">+</div>",null,fixation,NA,NA,NA,NA
NA,NA,NA,NA,NA,image-keyboard-response,6,145078,0.0-5.0-1.0,53,Study 53,Session 53,NA,null,img/encoding_events/Event_24.jpg,null,NA,NA,NA,NA,NA
NA,NA,NA,NA,NA,html-keyboard-response,7,145081,0.0-5.0-2.0,53,Study 53,Session 53,NA,null,Please press the <strong><u>d</u></strong> key to continue,null,response,d,0,FALSE,NA
NA,NA,NA,NA,NA,html-keyboard-response,8,145584,0.0-5.0-0.1,53,Study 53,Session 53,NA,null,"<div style=""font-size:60px;"">+</div>",null,fixation,NA,NA,NA,NA
NA,NA,NA,NA,NA,image-keyboard-response,9,151592,0.0-5.0-1.1,53,Study 53,Session 53,NA,null,img/encoding_events/Event_5.jpg,null,NA,NA,NA,NA,NA
NA,NA,NA,NA,NA,html-keyboard-response,10,151598,0.0-5.0-2.1,53,Study 53,Session 53,NA,null,Please press the <strong><u>s</u></strong> key to continue,null,response,s,0,FALSE,NA
NA,NA,NA,NA,NA,html-keyboard-response,11,152102,0.0-5.0-0.2,53,Study 53,Session 53,NA,null,"<div style=""font-size:60px;"">+</div>",null,fixation,NA,NA,NA,NA
NA,NA,NA,NA,NA,image-keyboard-response,12,158108,0.0-5.0-1.2,53,Study 53,Session 53,NA,null,img/encoding_events/Event_16.jpg,null,NA,NA,NA,NA,NA
NA,NA,NA,NA,NA,html-keyboard-response,13,158114,0.0-5.0-2.2,53,Study 53,Session 53,NA,null,Please press the <strong><u>k</u></strong> key to continue,null,response,k,0,FALSE,NA
NA,NA,NA,NA,NA,html-keyboard-response,14,158617,0.0-5.0-0.3,53,Study 53,Session 53,NA,null,"<div style=""font-size:60px;"">+</div>",null,fixation,NA,NA,NA,NA
NA,NA,NA,NA,NA,image-keyboard-response,15,164625,0.0-5.0-1.3,53,Study 53,Session 53,NA,null,img/encoding_events/Event_13.jpg,null,NA,NA,NA,NA,NA
NA,NA,NA,NA,NA,html-keyboard-response,16,166336,0.0-5.0-2.3,53,Study 53,Session 53,NA,1710,Please press the <strong><u>s</u></strong> key to continue,s,response,s,6000,TRUE,NA
NA,NA,NA,NA,NA,html-keyboard-response,17,166839,0.0-5.0-0.4,53,Study 53,Session 53,NA,null,"<div style=""font-size:60px;"">+</div>",null,fixation,NA,NA,NA,NA
NA,NA,NA,NA,NA,image-keyboard-response,18,172846,0.0-5.0-1.4,53,Study 53,Session 53,NA,null,img/encoding_events/Event_6.jpg,null,NA,NA,NA,NA,NA
NA,NA,NA,NA,NA,html-keyboard-response,19,172849,0.0-5.0-2.4,53,Study 53,Session 53,NA,null,Please press the <strong><u>f</u></strong> key to continue,null,response,f,0,FALSE,NA
NA,NA,NA,NA,NA,html-keyboard-response,20,173352,0.0-5.0-0.5,53,Study 53,Session 53,NA,null,"<div style=""font-size:60px;"">+</div>",null,fixation,NA,NA,NA,NA
NA,NA,NA,NA,NA,image-keyboard-response,21,179359,0.0-5.0-1.5,53,Study 53,Session 53,NA,null,img/encoding_events/Event_18.jpg,null,NA,NA,NA,NA,NA
NA,NA,NA,NA,NA,html-keyboard-response,22,179364,0.0-5.0-2.5,53,Study 53,Session 53,NA,null,Please press the <strong><u>f</u></strong> key to continue,null,response,f,0,FALSE,NA
NA,NA,NA,NA,NA,html-keyboard-response,23,179867,0.0-5.0-0.6,53,Study 53,Session 53,NA,null,"<div style=""font-size:60px;"">+</div>",null,fixation,NA,NA,NA,NA
NA,NA,NA,NA,NA,image-keyboard-response,24,185878,0.0-5.0-1.6,53,Study 53,Session 53,NA,null,img/encoding_events/Event_21.jpg,null,NA,NA,NA,NA,NA
NA,NA,NA,NA,NA,html-keyboard-response,25,185884,0.0-5.0-2.6,53,Study 53,Session 53,NA,null,Please press the <strong><u>a</u></strong> key to continue,null,response,a,0,FALSE,NA
NA,NA,NA,NA,NA,html-keyboard-response,26,186387,0.0-5.0-0.7,53,Study 53,Session 53,NA,null,"<div style=""font-size:60px;"">+</div>",null,fixation,NA,NA,NA,NA
NA,NA,NA,NA,NA,image-keyboard-response,27,192395,0.0-5.0-1.7,53,Study 53,Session 53,NA,null,img/encoding_events/Event_2.jpg,null,NA,NA,NA,NA,NA
NA,NA,NA,NA,NA,html-keyboard-response,28,194183,0.0-5.0-2.7,53,Study 53,Session 53,NA,1787,Please press the <strong><u>j</u></strong> key to continue,j,response,j,6000,TRUE,NA
NA,NA,NA,NA,NA,html-keyboard-response,29,194686,0.0-5.0-0.8,53,Study 53,Session 53,NA,null,"<div style=""font-size:60px;"">+</div>",null,fixation,NA,NA,NA,NA
NA,NA,NA,NA,NA,image-keyboard-response,30,200690,0.0-5.0-1.8,53,Study 53,Session 53,NA,null,img/encoding_events/Event_7.jpg,null,NA,NA,NA,NA,NA
NA,NA,NA,NA,NA,html-keyboard-response,31,200693,0.0-5.0-2.8,53,Study 53,Session 53,NA,null,Please press the <strong><u>f</u></strong> key to continue,null,response,f,0,FALSE,NA
NA,NA,NA,NA,NA,html-keyboard-response,32,201194,0.0-5.0-0.9,53,Study 53,Session 53,NA,null,"<div style=""font-size:60px;"">+</div>",null,fixation,NA,NA,NA,NA
NA,NA,NA,NA,NA,image-keyboard-response,33,207202,0.0-5.0-1.9,53,Study 53,Session 53,NA,null,img/encoding_events/Event_1.jpg,null,NA,NA,NA,NA,NA
NA,NA,NA,NA,NA,html-keyboard-response,34,207208,0.0-5.0-2.9,53,Study 53,Session 53,NA,null,Please press the <strong><u>j</u></strong> key to continue,null,response,j,0,FALSE,NA
NA,NA,NA,NA,NA,html-keyboard-response,35,207715,0.0-5.0-0.10,53,Study 53,Session 53,NA,null,"<div style=""font-size:60px;"">+</div>",null,fixation,NA,NA,NA,NA
NA,NA,NA,NA,NA,image-keyboard-response,36,213723,0.0-5.0-1.10,53,Study 53,Session 53,NA,null,img/encoding_events/Event_11.jpg,null,NA,NA,NA,NA,NA
NA,NA,NA,NA,NA,html-keyboard-response,37,213728,0.0-5.0-2.10,53,Study 53,Session 53,NA,null,Please press the <strong><u>j</u></strong> key to continue,null,response,j,0,FALSE,NA
NA,NA,NA,NA,NA,html-keyboard-response,38,214231,0.0-5.0-0.11,53,Study 53,Session 53,NA,null,"<div style=""font-size:60px;"">+</div>",null,fixation,NA,NA,NA,NA
NA,NA,NA,NA,NA,image-keyboard-response,39,220238,0.0-5.0-1.11,53,Study 53,Session 53,NA,null,img/encoding_events/Event_20.jpg,null,NA,NA,NA,NA,NA
NA,NA,NA,NA,NA,html-keyboard-response,40,221808,0.0-5.0-2.11,53,Study 53,Session 53,NA,1569,Please press the <strong><u>j</u></strong> key to continue,j,response,j,6000,TRUE,NA
NA,NA,NA,NA,NA,html-keyboard-response,41,222311,0.0-5.0-0.12,53,Study 53,Session 53,NA,null,"<div style=""font-size:60px;"">+</div>",null,fixation,NA,NA,NA,NA
NA,NA,NA,NA,NA,image-keyboard-response,42,228319,0.0-5.0-1.12,53,Study 53,Session 53,NA,null,img/encoding_events/Event_4.jpg,null,NA,NA,NA,NA,NA
NA,NA,NA,NA,NA,html-keyboard-response,43,228322,0.0-5.0-2.12,53,Study 53,Session 53,NA,null,Please press the <strong><u>a</u></strong> key to continue,null,response,a,0,FALSE,NA
NA,NA,NA,NA,NA,html-keyboard-response,44,228827,0.0-5.0-0.13,53,Study 53,Session 53,NA,null,"<div style=""font-size:60px;"">+</div>",null,fixation,NA,NA,NA,NA
NA,NA,NA,NA,NA,image-keyboard-response,45,234839,0.0-5.0-1.13,53,Study 53,Session 53,NA,null,img/encoding_events/Event_10.jpg,null,NA,NA,NA,NA,NA
NA,NA,NA,NA,NA,html-keyboard-response,46,234844,0.0-5.0-2.13,53,Study 53,Session 53,NA,null,Please press the <strong><u>f</u></strong> key to continue,null,response,f,0,FALSE,NA
NA,NA,NA,NA,NA,html-keyboard-response,47,235346,0.0-5.0-0.14,53,Study 53,Session 53,NA,null,"<div style=""font-size:60px;"">+</div>",null,fixation,NA,NA,NA,NA
NA,NA,NA,NA,NA,image-keyboard-response,48,241354,0.0-5.0-1.14,53,Study 53,Session 53,NA,null,img/encoding_events/Event_14.jpg,null,NA,NA,NA,NA,NA
NA,NA,NA,NA,NA,html-keyboard-response,49,241359,0.0-5.0-2.14,53,Study 53,Session 53,NA,null,Please press the <strong><u>f</u></strong> key to continue,null,response,f,0,FALSE,NA
NA,NA,NA,NA,NA,html-keyboard-response,50,241861,0.0-5.0-0.15,53,Study 53,Session 53,NA,null,"<div style=""font-size:60px;"">+</div>",null,fixation,NA,NA,NA,NA
NA,NA,NA,NA,NA,image-keyboard-response,51,247869,0.0-5.0-1.15,53,Study 53,Session 53,NA,null,img/encoding_events/Event_8.jpg,null,NA,NA,NA,NA,NA
NA,NA,NA,NA,NA,html-keyboard-response,52,249454,0.0-5.0-2.15,53,Study 53,Session 53,NA,1583,Please press the <strong><u>a</u></strong> key to continue,a,response,a,6000,TRUE,NA
NA,NA,NA,NA,NA,html-keyboard-response,53,249956,0.0-5.0-0.16,53,Study 53,Session 53,NA,null,"<div style=""font-size:60px;"">+</div>",null,fixation,NA,NA,NA,NA
NA,NA,NA,NA,NA,image-keyboard-response,54,255964,0.0-5.0-1.16,53,Study 53,Session 53,NA,null,img/encoding_events/Event_3.jpg,null,NA,NA,NA,NA,NA
NA,NA,NA,NA,NA,html-keyboard-response,55,255967,0.0-5.0-2.16,53,Study 53,Session 53,NA,null,Please press the <strong><u>s</u></strong> key to continue,null,response,s,0,FALSE,NA
NA,NA,NA,NA,NA,html-keyboard-response,56,256469,0.0-5.0-0.17,53,Study 53,Session 53,NA,null,"<div style=""font-size:60px;"">+</div>",null,fixation,NA,NA,NA,NA
NA,NA,NA,NA,NA,image-keyboard-response,57,262477,0.0-5.0-1.17,53,Study 53,Session 53,NA,null,img/encoding_events/Event_22.jpg,null,NA,NA,NA,NA,NA
NA,NA,NA,NA,NA,html-keyboard-response,58,262482,0.0-5.0-2.17,53,Study 53,Session 53,NA,null,Please press the <strong><u>a</u></strong> key to continue,null,response,a,0,FALSE,NA
NA,NA,NA,NA,NA,html-keyboard-response,59,262985,0.0-5.0-0.18,53,Study 53,Session 53,NA,null,"<div style=""font-size:60px;"">+</div>",null,fixation,NA,NA,NA,NA
NA,NA,NA,NA,NA,image-keyboard-response,60,268992,0.0-5.0-1.18,53,Study 53,Session 53,NA,null,img/encoding_events/Event_17.jpg,null,NA,NA,NA,NA,NA
NA,NA,NA,NA,NA,html-keyboard-response,61,268998,0.0-5.0-2.18,53,Study 53,Session 53,NA,null,Please press the <strong><u>a</u></strong> key to continue,null,response,a,0,FALSE,NA
NA,NA,NA,NA,NA,html-keyboard-response,62,269501,0.0-5.0-0.19,53,Study 53,Session 53,NA,null,"<div style=""font-size:60px;"">+</div>",null,fixation,NA,NA,NA,NA
NA,NA,NA,NA,NA,image-keyboard-response,63,275509,0.0-5.0-1.19,53,Study 53,Session 53,NA,null,img/encoding_events/Event_15.jpg,null,NA,NA,NA,NA,NA
NA,NA,NA,NA,NA,html-keyboard-response,64,281297,0.0-5.0-2.19,53,Study 53,Session 53,NA,5787,Please press the <strong><u>k</u></strong> key to continue,k,response,k,6000,TRUE,NA
NA,NA,NA,NA,NA,html-keyboard-response,65,281801,0.0-5.0-0.20,53,Study 53,Session 53,NA,null,"<div style=""font-size:60px;"">+</div>",null,fixation,NA,NA,NA,NA
NA,NA,NA,NA,NA,image-keyboard-response,66,287809,0.0-5.0-1.20,53,Study 53,Session 53,NA,null,img/encoding_events/Event_9.jpg,null,NA,NA,NA,NA,NA
NA,NA,NA,NA,NA,html-keyboard-response,67,287812,0.0-5.0-2.20,53,Study 53,Session 53,NA,null,Please press the <strong><u>j</u></strong> key to continue,null,response,j,0,FALSE,NA
NA,NA,NA,NA,NA,html-keyboard-response,68,288316,0.0-5.0-0.21,53,Study 53,Session 53,NA,null,"<div style=""font-size:60px;"">+</div>",null,fixation,NA,NA,NA,NA
NA,NA,NA,NA,NA,image-keyboard-response,69,294323,0.0-5.0-1.21,53,Study 53,Session 53,NA,null,img/encoding_events/Event_12.jpg,null,NA,NA,NA,NA,NA
NA,NA,NA,NA,NA,html-keyboard-response,70,294329,0.0-5.0-2.21,53,Study 53,Session 53,NA,null,Please press the <strong><u>j</u></strong> key to continue,null,response,j,0,FALSE,NA
NA,NA,NA,NA,NA,html-keyboard-response,71,294831,0.0-5.0-0.22,53,Study 53,Session 53,NA,null,"<div style=""font-size:60px;"">+</div>",null,fixation,NA,NA,NA,NA
NA,NA,NA,NA,NA,image-keyboard-response,72,300839,0.0-5.0-1.22,53,Study 53,Session 53,NA,null,img/encoding_events/Event_19.jpg,null,NA,NA,NA,NA,NA
NA,NA,NA,NA,NA,html-keyboard-response,73,300845,0.0-5.0-2.22,53,Study 53,Session 53,NA,null,Please press the <strong><u>s</u></strong> key to continue,null,response,s,0,FALSE,NA
NA,NA,NA,NA,NA,html-keyboard-response,74,301348,0.0-5.0-0.23,53,Study 53,Session 53,NA,null,"<div style=""font-size:60px;"">+</div>",null,fixation,NA,NA,NA,NA
NA,NA,NA,NA,NA,image-keyboard-response,75,307356,0.0-5.0-1.23,53,Study 53,Session 53,NA,null,img/encoding_events/Event_23.jpg,null,NA,NA,NA,NA,NA
NA,NA,NA,NA,NA,html-keyboard-response,76,308965,0.0-5.0-2.23,53,Study 53,Session 53,NA,1608,Please press the <strong><u>a</u></strong> key to continue,a,response,a,6000,TRUE,NA
NA,NA,NA,NA,NA,instructions,77,364945,0.0-6.0,53,Study 53,Session 53,"[{""page_index"":0,""viewing_time"":2162},{""page_index"":1,""viewing_time"":10667},{""page_index"":2,""viewing_time"":11467},{""page_index"":3,""viewing_time"":17750},{""page_index"":4,""viewing_time"":8334},{""page_index"":5,""viewing_time"":4017},{""page_index"":6,""viewing_time"":1583}]",55980,NA,NA,NA,NA,NA,NA,NA
NA,NA,NA,NA,NA,image-keyboard-response,78,374374,0.0-7.0-0.0-0.0,53,Study 53,Session 53,NA,6925,img/testing_events/Ca/Test_Ca_Event_18.jpg,u,response,u,NA,TRUE,Ca
NA,NA,NA,NA,NA,image-keyboard-response,79,382330,0.0-7.0-0.0-0.1,53,Study 53,Session 53,NA,7953,img/testing_events/Ca/Test_Ca_Event_6.jpg,n,response,u,NA,FALSE,Ca
NA,NA,NA,NA,NA,image-keyboard-response,80,385240,0.0-7.0-0.0-0.2,53,Study 53,Session 53,NA,2909,img/testing_events/Ca/Test_Ca_Event_23.jpg,c,response,c,NA,TRUE,Ca
NA,NA,NA,NA,NA,image-keyboard-response,81,387881,0.0-7.0-0.0-0.3,53,Study 53,Session 53,NA,2639,img/testing_events/Ca/Test_Ca_Event_9.jpg,e,response,e,NA,TRUE,Ca
NA,NA,NA,NA,NA,image-keyboard-response,82,391250,0.0-7.0-0.0-0.4,53,Study 53,Session 53,NA,3367,img/testing_events/Ca/Test_Ca_Event_10.jpg,u,response,u,NA,TRUE,Ca
NA,NA,NA,NA,NA,image-keyboard-response,83,394011,0.0-7.0-0.0-0.5,53,Study 53,Session 53,NA,2759,img/testing_events/Ca/Test_Ca_Event_16.jpg,n,response,n,NA,TRUE,Ca
NA,NA,NA,NA,NA,image-keyboard-response,84,401444,0.0-7.0-0.0-0.6,53,Study 53,Session 53,NA,7430,img/testing_events/Ca/Test_Ca_Event_2.jpg,u,response,u,NA,TRUE,Ca
NA,NA,NA,NA,NA,image-keyboard-response,85,407412,0.0-7.0-0.0-0.7,53,Study 53,Session 53,NA,5966,img/testing_events/Ca/Test_Ca_Event_15.jpg,c,response,c,NA,TRUE,Ca
NA,NA,NA,NA,NA,image-keyboard-response,86,410745,0.0-7.0-0.0-0.8,53,Study 53,Session 53,NA,3332,img/testing_events/Ca/Test_Ca_Event_4.jpg,n,response,n,NA,TRUE,Ca
NA,NA,NA,NA,NA,image-keyboard-response,87,413390,0.0-7.0-0.0-0.9,53,Study 53,Session 53,NA,2643,img/testing_events/Ca/Test_Ca_Event_1.jpg,e,response,e,NA,TRUE,Ca
NA,NA,NA,NA,NA,image-keyboard-response,88,420310,0.0-7.0-0.0-0.10,53,Study 53,Session 53,NA,6918,img/testing_events/Ca/Test_Ca_Event_24.jpg,u,response,n,NA,FALSE,Ca
NA,NA,NA,NA,NA,image-keyboard-response,89,422622,0.0-7.0-0.0-0.11,53,Study 53,Session 53,NA,2310,img/testing_events/Ca/Test_Ca_Event_19.jpg,c,response,c,NA,TRUE,Ca
NA,NA,NA,NA,NA,image-keyboard-response,90,428672,0.0-7.0-0.0-0.12,53,Study 53,Session 53,NA,6048,img/testing_events/Ca/Test_Ca_Event_5.jpg,e,response,e,NA,TRUE,Ca
NA,NA,NA,NA,NA,image-keyboard-response,91,432929,0.0-7.0-0.0-0.13,53,Study 53,Session 53,NA,4256,img/testing_events/Ca/Test_Ca_Event_22.jpg,e,response,u,NA,FALSE,Ca
NA,NA,NA,NA,NA,image-keyboard-response,92,439711,0.0-7.0-0.0-0.14,53,Study 53,Session 53,NA,6780,img/testing_events/Ca/Test_Ca_Event_17.jpg,u,response,e,NA,FALSE,Ca
NA,NA,NA,NA,NA,image-keyboard-response,93,444753,0.0-7.0-0.0-0.15,53,Study 53,Session 53,NA,5040,img/testing_events/Ca/Test_Ca_Event_3.jpg,c,response,c,NA,TRUE,Ca
NA,NA,NA,NA,NA,image-keyboard-response,94,447917,0.0-7.0-0.0-0.16,53,Study 53,Session 53,NA,3162,img/testing_events/Ca/Test_Ca_Event_14.jpg,u,response,u,NA,TRUE,Ca
NA,NA,NA,NA,NA,image-keyboard-response,95,451252,0.0-7.0-0.0-0.17,53,Study 53,Session 53,NA,3332,img/testing_events/Ca/Test_Ca_Event_8.jpg,u,response,n,NA,FALSE,Ca
NA,NA,NA,NA,NA,image-keyboard-response,96,453865,0.0-7.0-0.0-0.18,53,Study 53,Session 53,NA,2612,img/testing_events/Ca/Test_Ca_Event_20.jpg,n,response,n,NA,TRUE,Ca
NA,NA,NA,NA,NA,image-keyboard-response,97,456630,0.0-7.0-0.0-0.19,53,Study 53,Session 53,NA,2762,img/testing_events/Ca/Test_Ca_Event_11.jpg,c,response,c,NA,TRUE,Ca
NA,NA,NA,NA,NA,image-keyboard-response,98,461126,0.0-7.0-0.0-0.20,53,Study 53,Session 53,NA,4495,img/testing_events/Ca/Test_Ca_Event_7.jpg,u,response,c,NA,FALSE,Ca
NA,NA,NA,NA,NA,image-keyboard-response,99,466111,0.0-7.0-0.0-0.21,53,Study 53,Session 53,NA,4983,img/testing_events/Ca/Test_Ca_Event_21.jpg,n,response,e,NA,FALSE,Ca
NA,NA,NA,NA,NA,image-keyboard-response,100,471059,0.0-7.0-0.0-0.22,53,Study 53,Session 53,NA,4946,img/testing_events/Ca/Test_Ca_Event_12.jpg,n,response,n,NA,TRUE,Ca
NA,NA,NA,NA,NA,image-keyboard-response,101,475899,0.0-7.0-0.0-0.23,53,Study 53,Session 53,NA,4838,img/testing_events/Ca/Test_Ca_Event_13.jpg,c,response,e,NA,FALSE,Ca
NA,NA,NA,NA,NA,image-keyboard-response,102,489240,0.0-7.0-1.0-0.0,53,Study 53,Session 53,NA,13339,img/testing_events/Ac/Test_Ac_Event_17.jpg,n,response,u,NA,FALSE,Ac
NA,NA,NA,NA,NA,image-keyboard-response,103,490535,0.0-7.0-1.0-0.1,53,Study 53,Session 53,NA,1293,img/testing_events/Ac/Test_Ac_Event_15.jpg,n,response,n,NA,TRUE,Ac
NA,NA,NA,NA,NA,image-keyboard-response,104,497601,0.0-7.0-1.0-0.2,53,Study 53,Session 53,NA,7064,img/testing_events/Ac/Test_Ac_Event_11.jpg,n,response,n,NA,TRUE,Ac
NA,NA,NA,NA,NA,image-keyboard-response,105,500294,0.0-7.0-1.0-0.3,53,Study 53,Session 53,NA,2691,img/testing_events/Ac/Test_Ac_Event_7.jpg,e,response,n,NA,FALSE,Ac
NA,NA,NA,NA,NA,image-keyboard-response,106,504574,0.0-7.0-1.0-0.4,53,Study 53,Session 53,NA,4278,img/testing_events/Ac/Test_Ac_Event_14.jpg,c,response,c,NA,TRUE,Ac
NA,NA,NA,NA,NA,image-keyboard-response,107,505055,0.0-7.0-1.0-0.5,53,Study 53,Session 53,NA,479,img/testing_events/Ac/Test_Ac_Event_5.jpg,u,response,u,NA,TRUE,Ac
NA,NA,NA,NA,NA,image-keyboard-response,108,508659,0.0-7.0-1.0-0.6,53,Study 53,Session 53,NA,3603,img/testing_events/Ac/Test_Ac_Event_24.jpg,n,response,e,NA,FALSE,Ac
NA,NA,NA,NA,NA,image-keyboard-response,109,510888,0.0-7.0-1.0-0.7,53,Study 53,Session 53,NA,2227,img/testing_events/Ac/Test_Ac_Event_21.jpg,u,response,u,NA,TRUE,Ac
NA,NA,NA,NA,NA,image-keyboard-response,110,513058,0.0-7.0-1.0-0.8,53,Study 53,Session 53,NA,2168,img/testing_events/Ac/Test_Ac_Event_4.jpg,e,response,e,NA,TRUE,Ac
NA,NA,NA,NA,NA,image-keyboard-response,111,516413,0.0-7.0-1.0-0.9,53,Study 53,Session 53,NA,3354,img/testing_events/Ac/Test_Ac_Event_6.jpg,n,response,c,NA,FALSE,Ac
NA,NA,NA,NA,NA,image-keyboard-response,112,522980,0.0-7.0-1.0-0.10,53,Study 53,Session 53,NA,6565,img/testing_events/Ac/Test_Ac_Event_2.jpg,c,response,c,NA,TRUE,Ac
NA,NA,NA,NA,NA,image-keyboard-response,113,527383,0.0-7.0-1.0-0.11,53,Study 53,Session 53,NA,4402,img/testing_events/Ac/Test_Ac_Event_12.jpg,e,response,e,NA,TRUE,Ac
NA,NA,NA,NA,NA,image-keyboard-response,114,530518,0.0-7.0-1.0-0.12,53,Study 53,Session 53,NA,3133,img/testing_events/Ac/Test_Ac_Event_3.jpg,n,response,n,NA,TRUE,Ac
NA,NA,NA,NA,NA,image-keyboard-response,115,531813,0.0-7.0-1.0-0.13,53,Study 53,Session 53,NA,1293,img/testing_events/Ac/Test_Ac_Event_20.jpg,e,response,e,NA,TRUE,Ac
NA,NA,NA,NA,NA,image-keyboard-response,116,535625,0.0-7.0-1.0-0.14,53,Study 53,Session 53,NA,3810,img/testing_events/Ac/Test_Ac_Event_18.jpg,e,response,c,NA,FALSE,Ac
NA,NA,NA,NA,NA,image-keyboard-response,117,538045,0.0-7.0-1.0-0.15,53,Study 53,Session 53,NA,2417,img/testing_events/Ac/Test_Ac_Event_16.jpg,e,response,e,NA,TRUE,Ac
NA,NA,NA,NA,NA,image-keyboard-response,118,545169,0.0-7.0-1.0-0.16,53,Study 53,Session 53,NA,7122,img/testing_events/Ac/Test_Ac_Event_13.jpg,u,response,u,NA,TRUE,Ac
NA,NA,NA,NA,NA,image-keyboard-response,119,551057,0.0-7.0-1.0-0.17,53,Study 53,Session 53,NA,5886,img/testing_events/Ac/Test_Ac_Event_23.jpg,n,response,n,NA,TRUE,Ac
NA,NA,NA,NA,NA,image-keyboard-response,120,556271,0.0-7.0-1.0-0.18,53,Study 53,Session 53,NA,5213,img/testing_events/Ac/Test_Ac_Event_9.jpg,u,response,u,NA,TRUE,Ac
NA,NA,NA,NA,NA,image-keyboard-response,121,557897,0.0-7.0-1.0-0.19,53,Study 53,Session 53,NA,1624,img/testing_events/Ac/Test_Ac_Event_19.jpg,n,response,n,NA,TRUE,Ac
NA,NA,NA,NA,NA,image-keyboard-response,122,562699,0.0-7.0-1.0-0.20,53,Study 53,Session 53,NA,4800,img/testing_events/Ac/Test_Ac_Event_10.jpg,c,response,c,NA,TRUE,Ac
NA,NA,NA,NA,NA,image-keyboard-response,123,566292,0.0-7.0-1.0-0.21,53,Study 53,Session 53,NA,3591,img/testing_events/Ac/Test_Ac_Event_8.jpg,e,response,e,NA,TRUE,Ac
NA,NA,NA,NA,NA,image-keyboard-response,124,572624,0.0-7.0-1.0-0.22,53,Study 53,Session 53,NA,6330,img/testing_events/Ac/Test_Ac_Event_22.jpg,n,response,c,NA,FALSE,Ac
NA,NA,NA,NA,NA,image-keyboard-response,125,578660,0.0-7.0-1.0-0.23,53,Study 53,Session 53,NA,6034,img/testing_events/Ac/Test_Ac_Event_1.jpg,u,response,u,NA,TRUE,Ac
NA,NA,NA,NA,NA,image-keyboard-response,126,582265,0.0-7.0-2.0-0.0,53,Study 53,Session 53,NA,3603,img/testing_events/Ba/Test_Ba_Event_1.jpg,c,response,c,NA,TRUE,Ba
NA,NA,NA,NA,NA,image-keyboard-response,127,584891,0.0-7.0-2.0-0.1,53,Study 53,Session 53,NA,2624,img/testing_events/Ba/Test_Ba_Event_13.jpg,c,response,c,NA,TRUE,Ba
NA,NA,NA,NA,NA,image-keyboard-response,128,589267,0.0-7.0-2.0-0.2,53,Study 53,Session 53,NA,4374,img/testing_events/Ba/Test_Ba_Event_22.jpg,n,response,n,NA,TRUE,Ba
NA,NA,NA,NA,NA,image-keyboard-response,129,591336,0.0-7.0-2.0-0.3,53,Study 53,Session 53,NA,2066,img/testing_events/Ba/Test_Ba_Event_16.jpg,u,response,u,NA,TRUE,Ba
NA,NA,NA,NA,NA,image-keyboard-response,130,594618,0.0-7.0-2.0-0.4,53,Study 53,Session 53,NA,3279,img/testing_events/Ba/Test_Ba_Event_14.jpg,n,response,n,NA,TRUE,Ba
NA,NA,NA,NA,NA,image-keyboard-response,131,595937,0.0-7.0-2.0-0.5,53,Study 53,Session 53,NA,1317,img/testing_events/Ba/Test_Ba_Event_3.jpg,e,response,e,NA,TRUE,Ba
NA,NA,NA,NA,NA,image-keyboard-response,132,599023,0.0-7.0-2.0-0.6,53,Study 53,Session 53,NA,3085,img/testing_events/Ba/Test_Ba_Event_24.jpg,u,response,u,NA,TRUE,Ba
NA,NA,NA,NA,NA,image-keyboard-response,133,604803,0.0-7.0-2.0-0.7,53,Study 53,Session 53,NA,5777,img/testing_events/Ba/Test_Ba_Event_6.jpg,n,response,n,NA,TRUE,Ba
NA,NA,NA,NA,NA,image-keyboard-response,134,606046,0.0-7.0-2.0-0.8,53,Study 53,Session 53,NA,1241,img/testing_events/Ba/Test_Ba_Event_19.jpg,e,response,e,NA,TRUE,Ba
NA,NA,NA,NA,NA,image-keyboard-response,135,609836,0.0-7.0-2.0-0.9,53,Study 53,Session 53,NA,3788,img/testing_events/Ba/Test_Ba_Event_7.jpg,e,response,e,NA,TRUE,Ba
NA,NA,NA,NA,NA,image-keyboard-response,136,612490,0.0-7.0-2.0-0.10,53,Study 53,Session 53,NA,2652,img/testing_events/Ba/Test_Ba_Event_4.jpg,u,response,u,NA,TRUE,Ba
NA,NA,NA,NA,NA,image-keyboard-response,137,617360,0.0-7.0-2.0-0.11,53,Study 53,Session 53,NA,4867,img/testing_events/Ba/Test_Ba_Event_11.jpg,e,response,e,NA,TRUE,Ba
NA,NA,NA,NA,NA,image-keyboard-response,138,621915,0.0-7.0-2.0-0.12,53,Study 53,Session 53,NA,4553,img/testing_events/Ba/Test_Ba_Event_18.jpg,n,response,n,NA,TRUE,Ba
NA,NA,NA,NA,NA,image-keyboard-response,139,624410,0.0-7.0-2.0-0.13,53,Study 53,Session 53,NA,2493,img/testing_events/Ba/Test_Ba_Event_21.jpg,c,response,c,NA,TRUE,Ba
NA,NA,NA,NA,NA,image-keyboard-response,140,626064,0.0-7.0-2.0-0.14,53,Study 53,Session 53,NA,1652,img/testing_events/Ba/Test_Ba_Event_9.jpg,c,response,c,NA,TRUE,Ba
NA,NA,NA,NA,NA,image-keyboard-response,141,627596,0.0-7.0-2.0-0.15,53,Study 53,Session 53,NA,1530,img/testing_events/Ba/Test_Ba_Event_23.jpg,e,response,e,NA,TRUE,Ba
NA,NA,NA,NA,NA,image-keyboard-response,142,630605,0.0-7.0-2.0-0.16,53,Study 53,Session 53,NA,3007,img/testing_events/Ba/Test_Ba_Event_12.jpg,u,response,u,NA,TRUE,Ba
NA,NA,NA,NA,NA,image-keyboard-response,143,634042,0.0-7.0-2.0-0.17,53,Study 53,Session 53,NA,3435,img/testing_events/Ba/Test_Ba_Event_15.jpg,u,response,e,NA,FALSE,Ba
NA,NA,NA,NA,NA,image-keyboard-response,144,637551,0.0-7.0-2.0-0.18,53,Study 53,Session 53,NA,3506,img/testing_events/Ba/Test_Ba_Event_20.jpg,u,response,u,NA,TRUE,Ba
NA,NA,NA,NA,NA,image-keyboard-response,145,641607,0.0-7.0-2.0-0.19,53,Study 53,Session 53,NA,4054,img/testing_events/Ba/Test_Ba_Event_2.jpg,n,response,n,NA,TRUE,Ba
NA,NA,NA,NA,NA,image-keyboard-response,146,645654,0.0-7.0-2.0-0.20,53,Study 53,Session 53,NA,4045,img/testing_events/Ba/Test_Ba_Event_10.jpg,n,response,n,NA,TRUE,Ba
NA,NA,NA,NA,NA,image-keyboard-response,147,649391,0.0-7.0-2.0-0.21,53,Study 53,Session 53,NA,3735,img/testing_events/Ba/Test_Ba_Event_17.jpg,c,response,c,NA,TRUE,Ba
NA,NA,NA,NA,NA,image-keyboard-response,148,653310,0.0-7.0-2.0-0.22,53,Study 53,Session 53,NA,3917,img/testing_events/Ba/Test_Ba_Event_8.jpg,u,response,u,NA,TRUE,Ba
NA,NA,NA,NA,NA,image-keyboard-response,149,655372,0.0-7.0-2.0-0.23,53,Study 53,Session 53,NA,2060,img/testing_events/Ba/Test_Ba_Event_5.jpg,c,response,c,NA,TRUE,Ba
NA,NA,NA,NA,NA,image-keyboard-response,150,661801,0.0-7.0-3.0-0.0,53,Study 53,Session 53,NA,6428,img/testing_events/Bc/Test_Bc_Event_13.jpg,u,response,n,NA,FALSE,Bc
NA,NA,NA,NA,NA,image-keyboard-response,151,665116,0.0-7.0-3.0-0.1,53,Study 53,Session 53,NA,3312,img/testing_events/Bc/Test_Bc_Event_9.jpg,u,response,n,NA,FALSE,Bc
NA,NA,NA,NA,NA,image-keyboard-response,152,665962,0.0-7.0-3.0-0.2,53,Study 53,Session 53,NA,844,img/testing_events/Bc/Test_Bc_Event_19.jpg,u,response,u,NA,TRUE,Bc
NA,NA,NA,NA,NA,image-keyboard-response,153,669889,0.0-7.0-3.0-0.3,53,Study 53,Session 53,NA,3925,img/testing_events/Bc/Test_Bc_Event_22.jpg,e,response,e,NA,TRUE,Bc
NA,NA,NA,NA,NA,image-keyboard-response,154,675901,0.0-7.0-3.0-0.4,53,Study 53,Session 53,NA,6010,img/testing_events/Bc/Test_Bc_Event_4.jpg,c,response,c,NA,TRUE,Bc
NA,NA,NA,NA,NA,image-keyboard-response,155,681521,0.0-7.0-3.0-0.5,53,Study 53,Session 53,NA,5618,img/testing_events/Bc/Test_Bc_Event_7.jpg,u,response,u,NA,TRUE,Bc
NA,NA,NA,NA,NA,image-keyboard-response,156,682801,0.0-7.0-3.0-0.6,53,Study 53,Session 53,NA,1279,img/testing_events/Bc/Test_Bc_Event_14.jpg,e,response,e,NA,TRUE,Bc
NA,NA,NA,NA,NA,image-keyboard-response,157,686045,0.0-7.0-3.0-0.7,53,Study 53,Session 53,NA,3242,img/testing_events/Bc/Test_Bc_Event_16.jpg,c,response,c,NA,TRUE,Bc
NA,NA,NA,NA,NA,image-keyboard-response,158,689797,0.0-7.0-3.0-0.8,53,Study 53,Session 53,NA,3749,img/testing_events/Bc/Test_Bc_Event_23.jpg,u,response,u,NA,TRUE,Bc
NA,NA,NA,NA,NA,image-keyboard-response,159,691179,0.0-7.0-3.0-0.9,53,Study 53,Session 53,NA,1380,img/testing_events/Bc/Test_Bc_Event_3.jpg,u,response,u,NA,TRUE,Bc
NA,NA,NA,NA,NA,image-keyboard-response,160,693992,0.0-7.0-3.0-0.10,53,Study 53,Session 53,NA,2812,img/testing_events/Bc/Test_Bc_Event_24.jpg,n,response,c,NA,FALSE,Bc
NA,NA,NA,NA,NA,image-keyboard-response,161,696342,0.0-7.0-3.0-0.11,53,Study 53,Session 53,NA,2348,img/testing_events/Bc/Test_Bc_Event_2.jpg,n,response,e,NA,FALSE,Bc
NA,NA,NA,NA,NA,image-keyboard-response,162,700164,0.0-7.0-3.0-0.12,53,Study 53,Session 53,NA,3820,img/testing_events/Bc/Test_Bc_Event_5.jpg,e,response,n,NA,FALSE,Bc
NA,NA,NA,NA,NA,image-keyboard-response,163,702424,0.0-7.0-3.0-0.13,53,Study 53,Session 53,NA,2258,img/testing_events/Bc/Test_Bc_Event_1.jpg,u,response,n,NA,FALSE,Bc
NA,NA,NA,NA,NA,image-keyboard-response,164,707406,0.0-7.0-3.0-0.14,53,Study 53,Session 53,NA,4980,img/testing_events/Bc/Test_Bc_Event_10.jpg,c,response,e,NA,FALSE,Bc
NA,NA,NA,NA,NA,image-keyboard-response,165,710234,0.0-7.0-3.0-0.15,53,Study 53,Session 53,NA,2826,img/testing_events/Bc/Test_Bc_Event_15.jpg,c,response,u,NA,FALSE,Bc
NA,NA,NA,NA,NA,image-keyboard-response,166,714263,0.0-7.0-3.0-0.16,53,Study 53,Session 53,NA,4027,img/testing_events/Bc/Test_Bc_Event_6.jpg,n,response,e,NA,FALSE,Bc
NA,NA,NA,NA,NA,image-keyboard-response,167,715616,0.0-7.0-3.0-0.17,53,Study 53,Session 53,NA,1351,img/testing_events/Bc/Test_Bc_Event_21.jpg,u,response,n,NA,FALSE,Bc
NA,NA,NA,NA,NA,image-keyboard-response,168,715939,0.0-7.0-3.0-0.18,53,Study 53,Session 53,NA,321,img/testing_events/Bc/Test_Bc_Event_20.jpg,u,response,c,NA,FALSE,Bc
NA,NA,NA,NA,NA,image-keyboard-response,169,723781,0.0-7.0-3.0-0.19,53,Study 53,Session 53,NA,7840,img/testing_events/Bc/Test_Bc_Event_11.jpg,e,response,u,NA,FALSE,Bc
NA,NA,NA,NA,NA,image-keyboard-response,170,725708,0.0-7.0-3.0-0.20,53,Study 53,Session 53,NA,1925,img/testing_events/Bc/Test_Bc_Event_8.jpg,c,response,c,NA,TRUE,Bc
NA,NA,NA,NA,NA,image-keyboard-response,171,730950,0.0-7.0-3.0-0.21,53,Study 53,Session 53,NA,5239,img/testing_events/Bc/Test_Bc_Event_17.jpg,u,response,n,NA,FALSE,Bc
NA,NA,NA,NA,NA,image-keyboard-response,172,734356,0.0-7.0-3.0-0.22,53,Study 53,Session 53,NA,3404,img/testing_events/Bc/Test_Bc_Event_18.jpg,e,response,e,NA,TRUE,Bc
NA,NA,NA,NA,NA,image-keyboard-response,173,736704,0.0-7.0-3.0-0.23,53,Study 53,Session 53,NA,2347,img/testing_events/Bc/Test_Bc_Event_12.jpg,c,response,c,NA,TRUE,Bc
NA,NA,NA,NA,NA,image-keyboard-response,174,742970,0.0-7.0-4.0-0.0,53,Study 53,Session 53,NA,6264,img/testing_events/Cb/Test_Cb_Event_6.jpg,n,response,c,NA,FALSE,Cb
NA,NA,NA,NA,NA,image-keyboard-response,175,746204,0.0-7.0-4.0-0.1,53,Study 53,Session 53,NA,3231,img/testing_events/Cb/Test_Cb_Event_10.jpg,n,response,c,NA,FALSE,Cb
NA,NA,NA,NA,NA,image-keyboard-response,176,747569,0.0-7.0-4.0-0.2,53,Study 53,Session 53,NA,1363,img/testing_events/Cb/Test_Cb_Event_19.jpg,n,response,n,NA,TRUE,Cb
NA,NA,NA,NA,NA,image-keyboard-response,177,752687,0.0-7.0-4.0-0.3,53,Study 53,Session 53,NA,5117,img/testing_events/Cb/Test_Cb_Event_1.jpg,u,response,u,NA,TRUE,Cb
NA,NA,NA,NA,NA,image-keyboard-response,178,754276,0.0-7.0-4.0-0.4,53,Study 53,Session 53,NA,1587,img/testing_events/Cb/Test_Cb_Event_3.jpg,n,response,n,NA,TRUE,Cb
NA,NA,NA,NA,NA,image-keyboard-response,179,761489,0.0-7.0-4.0-0.5,53,Study 53,Session 53,NA,7210,img/testing_events/Cb/Test_Cb_Event_7.jpg,u,response,n,NA,FALSE,Cb
NA,NA,NA,NA,NA,image-keyboard-response,180,767361,0.0-7.0-4.0-0.6,53,Study 53,Session 53,NA,5871,img/testing_events/Cb/Test_Cb_Event_8.jpg,e,response,e,NA,TRUE,Cb
NA,NA,NA,NA,NA,image-keyboard-response,181,768865,0.0-7.0-4.0-0.7,53,Study 53,Session 53,NA,1502,img/testing_events/Cb/Test_Cb_Event_5.jpg,u,response,u,NA,TRUE,Cb
NA,NA,NA,NA,NA,image-keyboard-response,182,769978,0.0-7.0-4.0-0.8,53,Study 53,Session 53,NA,1111,img/testing_events/Cb/Test_Cb_Event_4.jpg,e,response,e,NA,TRUE,Cb
NA,NA,NA,NA,NA,image-keyboard-response,183,772711,0.0-7.0-4.0-0.9,53,Study 53,Session 53,NA,2731,img/testing_events/Cb/Test_Cb_Event_13.jpg,u,response,u,NA,TRUE,Cb
NA,NA,NA,NA,NA,image-keyboard-response,184,777697,0.0-7.0-4.0-0.10,53,Study 53,Session 53,NA,4984,img/testing_events/Cb/Test_Cb_Event_12.jpg,n,response,e,NA,FALSE,Cb
NA,NA,NA,NA,NA,image-keyboard-response,185,782287,0.0-7.0-4.0-0.11,53,Study 53,Session 53,NA,4587,img/testing_events/Cb/Test_Cb_Event_9.jpg,u,response,u,NA,TRUE,Cb
NA,NA,NA,NA,NA,image-keyboard-response,186,784629,0.0-7.0-4.0-0.12,53,Study 53,Session 53,NA,2340,img/testing_events/Cb/Test_Cb_Event_24.jpg,e,response,e,NA,TRUE,Cb
NA,NA,NA,NA,NA,image-keyboard-response,187,793163,0.0-7.0-4.0-0.13,53,Study 53,Session 53,NA,8532,img/testing_events/Cb/Test_Cb_Event_17.jpg,u,response,u,NA,TRUE,Cb
NA,NA,NA,NA,NA,image-keyboard-response,188,794976,0.0-7.0-4.0-0.14,53,Study 53,Session 53,NA,1811,img/testing_events/Cb/Test_Cb_Event_20.jpg,e,response,e,NA,TRUE,Cb
NA,NA,NA,NA,NA,image-keyboard-response,189,800095,0.0-7.0-4.0-0.15,53,Study 53,Session 53,NA,5117,img/testing_events/Cb/Test_Cb_Event_18.jpg,c,response,c,NA,TRUE,Cb
NA,NA,NA,NA,NA,image-keyboard-response,190,801340,0.0-7.0-4.0-0.16,53,Study 53,Session 53,NA,1242,img/testing_events/Cb/Test_Cb_Event_21.jpg,u,response,u,NA,TRUE,Cb
NA,NA,NA,NA,NA,image-keyboard-response,191,805009,0.0-7.0-4.0-0.17,53,Study 53,Session 53,NA,3667,img/testing_events/Cb/Test_Cb_Event_11.jpg,n,response,n,NA,TRUE,Cb
NA,NA,NA,NA,NA,image-keyboard-response,192,808568,0.0-7.0-4.0-0.18,53,Study 53,Session 53,NA,3558,img/testing_events/Cb/Test_Cb_Event_22.jpg,c,response,c,NA,TRUE,Cb
NA,NA,NA,NA,NA,image-keyboard-response,193,810131,0.0-7.0-4.0-0.19,53,Study 53,Session 53,NA,1560,img/testing_events/Cb/Test_Cb_Event_23.jpg,n,response,n,NA,TRUE,Cb
NA,NA,NA,NA,NA,image-keyboard-response,194,813651,0.0-7.0-4.0-0.20,53,Study 53,Session 53,NA,3518,img/testing_events/Cb/Test_Cb_Event_14.jpg,c,response,c,NA,TRUE,Cb
NA,NA,NA,NA,NA,image-keyboard-response,195,816294,0.0-7.0-4.0-0.21,53,Study 53,Session 53,NA,2641,img/testing_events/Cb/Test_Cb_Event_15.jpg,n,response,n,NA,TRUE,Cb
NA,NA,NA,NA,NA,image-keyboard-response,196,821080,0.0-7.0-4.0-0.22,53,Study 53,Session 53,NA,4784,img/testing_events/Cb/Test_Cb_Event_2.jpg,e,response,c,NA,FALSE,Cb
NA,NA,NA,NA,NA,image-keyboard-response,197,823232,0.0-7.0-4.0-0.23,53,Study 53,Session 53,NA,2150,img/testing_events/Cb/Test_Cb_Event_16.jpg,e,response,e,NA,TRUE,Cb
NA,NA,NA,NA,NA,image-keyboard-response,198,832520,0.0-7.0-5.0-0.0,53,Study 53,Session 53,NA,9286,img/testing_events/Ab/Test_Ab_Event_17.jpg,e,response,e,NA,TRUE,Ab
NA,NA,NA,NA,NA,image-keyboard-response,199,834462,0.0-7.0-5.0-0.1,53,Study 53,Session 53,NA,1941,img/testing_events/Ab/Test_Ab_Event_23.jpg,c,response,c,NA,TRUE,Ab
NA,NA,NA,NA,NA,image-keyboard-response,200,835740,0.0-7.0-5.0-0.2,53,Study 53,Session 53,NA,1275,img/testing_events/Ab/Test_Ab_Event_18.jpg,u,response,u,NA,TRUE,Ab
NA,NA,NA,NA,NA,image-keyboard-response,201,836895,0.0-7.0-5.0-0.3,53,Study 53,Session 53,NA,1153,img/testing_events/Ab/Test_Ab_Event_19.jpg,c,response,c,NA,TRUE,Ab
NA,NA,NA,NA,NA,image-keyboard-response,202,841523,0.0-7.0-5.0-0.4,53,Study 53,Session 53,NA,4627,img/testing_events/Ab/Test_Ab_Event_22.jpg,u,response,u,NA,TRUE,Ab
NA,NA,NA,NA,NA,image-keyboard-response,203,843535,0.0-7.0-5.0-0.5,53,Study 53,Session 53,NA,2010,img/testing_events/Ab/Test_Ab_Event_13.jpg,e,response,e,NA,TRUE,Ab
NA,NA,NA,NA,NA,image-keyboard-response,204,845913,0.0-7.0-5.0-0.6,53,Study 53,Session 53,NA,2375,img/testing_events/Ab/Test_Ab_Event_4.jpg,e,response,n,NA,FALSE,Ab
NA,NA,NA,NA,NA,image-keyboard-response,205,847871,0.0-7.0-5.0-0.7,53,Study 53,Session 53,NA,1956,img/testing_events/Ab/Test_Ab_Event_20.jpg,n,response,n,NA,TRUE,Ab
NA,NA,NA,NA,NA,image-keyboard-response,206,848956,0.0-7.0-5.0-0.8,53,Study 53,Session 53,NA,1083,img/testing_events/Ab/Test_Ab_Event_5.jpg,e,response,e,NA,TRUE,Ab
NA,NA,NA,NA,NA,image-keyboard-response,207,850837,0.0-7.0-5.0-0.9,53,Study 53,Session 53,NA,1880,img/testing_events/Ab/Test_Ab_Event_6.jpg,u,response,u,NA,TRUE,Ab
NA,NA,NA,NA,NA,image-keyboard-response,208,854804,0.0-7.0-5.0-0.10,53,Study 53,Session 53,NA,3964,img/testing_events/Ab/Test_Ab_Event_12.jpg,n,response,n,NA,TRUE,Ab
NA,NA,NA,NA,NA,image-keyboard-response,209,858030,0.0-7.0-5.0-0.11,53,Study 53,Session 53,NA,3224,img/testing_events/Ab/Test_Ab_Event_7.jpg,c,response,c,NA,TRUE,Ab
NA,NA,NA,NA,NA,image-keyboard-response,210,863526,0.0-7.0-5.0-0.12,53,Study 53,Session 53,NA,5494,img/testing_events/Ab/Test_Ab_Event_11.jpg,c,response,c,NA,TRUE,Ab
NA,NA,NA,NA,NA,image-keyboard-response,211,866591,0.0-7.0-5.0-0.13,53,Study 53,Session 53,NA,3063,img/testing_events/Ab/Test_Ab_Event_1.jpg,e,response,e,NA,TRUE,Ab
NA,NA,NA,NA,NA,image-keyboard-response,212,868402,0.0-7.0-5.0-0.14,53,Study 53,Session 53,NA,1809,img/testing_events/Ab/Test_Ab_Event_2.jpg,u,response,u,NA,TRUE,Ab
NA,NA,NA,NA,NA,image-keyboard-response,213,871036,0.0-7.0-5.0-0.15,53,Study 53,Session 53,NA,2633,img/testing_events/Ab/Test_Ab_Event_3.jpg,c,response,c,NA,TRUE,Ab
NA,NA,NA,NA,NA,image-keyboard-response,214,872513,0.0-7.0-5.0-0.16,53,Study 53,Session 53,NA,1474,img/testing_events/Ab/Test_Ab_Event_9.jpg,e,response,e,NA,TRUE,Ab
NA,NA,NA,NA,NA,image-keyboard-response,215,874147,0.0-7.0-5.0-0.17,53,Study 53,Session 53,NA,1632,img/testing_events/Ab/Test_Ab_Event_10.jpg,u,response,u,NA,TRUE,Ab
NA,NA,NA,NA,NA,image-keyboard-response,216,877190,0.0-7.0-5.0-0.18,53,Study 53,Session 53,NA,3042,img/testing_events/Ab/Test_Ab_Event_24.jpg,n,response,n,NA,TRUE,Ab
NA,NA,NA,NA,NA,image-keyboard-response,217,878940,0.0-7.0-5.0-0.19,53,Study 53,Session 53,NA,1748,img/testing_events/Ab/Test_Ab_Event_21.jpg,e,response,e,NA,TRUE,Ab
NA,NA,NA,NA,NA,image-keyboard-response,218,885801,0.0-7.0-5.0-0.20,53,Study 53,Session 53,NA,6859,img/testing_events/Ab/Test_Ab_Event_8.jpg,n,response,n,NA,TRUE,Ab
NA,NA,NA,NA,NA,image-keyboard-response,219,887757,0.0-7.0-5.0-0.21,53,Study 53,Session 53,NA,1955,img/testing_events/Ab/Test_Ab_Event_14.jpg,u,response,u,NA,TRUE,Ab
NA,NA,NA,NA,NA,image-keyboard-response,220,890888,0.0-7.0-5.0-0.22,53,Study 53,Session 53,NA,3129,img/testing_events/Ab/Test_Ab_Event_15.jpg,c,response,c,NA,TRUE,Ab
NA,NA,NA,NA,NA,image-keyboard-response,221,895560,0.0-7.0-5.0-0.23,53,Study 53,Session 53,NA,4670,img/testing_events/Ab/Test_Ab_Event_16.jpg,n,response,n,NA,TRUE,Ab
NA,NA,NA,NA,NA,survey-text,222,1001184,0.0-8.0,53,Study 53,Session 53,NA,105612,NA,"{""Q0"":""No."",""Q1"":""My finger posed above the U button kept accidentally pressing the button before I was ready, so maybe 3-4 answers were not what I otherwise would have put."",""Q2"":""I didn't associate them as a story, just which pictures go with which pictures. ""}",NA,NA,NA,NA,NA
NA,NA,NA,NA,NA,survey-html-form,223,1033818,0.0-9.0,53,Study 53,Session 53,NA,32632,NA,"{""Gender"":""Female"",""Age"":""23"",""ColorBlind"":""No"",""Education"":""Bachelors degree"",""Income"":""$25,000-$49,999"",""Race"":""White"",""Fluent"":""Yes"",""AgeEnglish"":""0"",""Country"":""United States""}",NA,NA,NA,NA,NA
TRUE,NA,NA,NA,NA,fullscreen,224,1033822,0.0-10.0,53,Study 53,Session 53,NA,NA,NA,NA,NA,NA,NA,NA,NA
