success,timeout,failed_images,failed_audio,failed_video,trial_type,trial_index,time_elapsed,internal_node_id,subject_id,study_id,session_id,view_history,rt,stimulus,response,task,correct_response,attention_duration,correct,retrieval_group
TRUE,FALSE,[],[],[],preload,0,1527,0.0-0.0,64,Study 64,Session 64,NA,NA,NA,NA,NA,NA,NA,NA,NA
TRUE,NA,NA,NA,NA,fullscreen,1,8056,0.0-1.0,64,Study 64,Session 64,NA,NA,NA,NA,NA,NA,NA,NA,NA
NA,NA,NA,NA,NA,instructions,2,16702,0.0-2.0,64,Study 64,Session 64,"[{""page_index"":0,""viewing_time"":8645}]",8645,NA,NA,NA,NA,NA,NA,NA
NA,NA,NA,NA,NA,html-keyboard-response,3,25134,0.0-3.0,64,Study 64,Session 64,NA,8431,"Welcome to the experiment. <br /><br />This experiment will take about 20 minutes. Please complete all in one sitting. <br /><br />For this study, <strong>please use</strong> a laptop or desktop computer (not a mobile phone or tablet). Also, please use either <u>Chrome or Firefox</u>. <br /><br />Once you begin, <strong>DO NOT</strong> refresh the browser, as the experiment will reset and you will lose your progress. <br /><br />Press the <strong class=""upperline"">B</strong> key on your keyboard to begin.",b,NA,NA,NA,NA,NA
NA,NA,NA,NA,NA,instructions,4,275273,0.0-4.0,64,Study 64,Session 64,"[{""page_index"":0,""viewing_time"":4440},{""page_index"":1,""viewing_time"":8230},{""page_index"":2,""viewing_time"":236464}]",249134,NA,NA,NA,NA,NA,NA,NA
NA,NA,NA,NA,NA,html-keyboard-response,5,278291,0.0-5.0-0.0,64,Study 64,Session 64,NA,null,"<div style=""font-size:60px;"">+</div>",null,fixation,NA,NA,NA,NA
NA,NA,NA,NA,NA,image-keyboard-response,6,284310,0.0-5.0-1.0,64,Study 64,Session 64,NA,null,img/encoding_events/Event_2.jpg,null,NA,NA,NA,NA,NA
NA,NA,NA,NA,NA,html-keyboard-response,7,284315,0.0-5.0-2.0,64,Study 64,Session 64,NA,null,Please press the <strong><u>d</u></strong> key to continue,null,response,d,0,FALSE,NA
NA,NA,NA,NA,NA,html-keyboard-response,8,284829,0.0-5.0-0.1,64,Study 64,Session 64,NA,null,"<div style=""font-size:60px;"">+</div>",null,fixation,NA,NA,NA,NA
NA,NA,NA,NA,NA,image-keyboard-response,9,290842,0.0-5.0-1.1,64,Study 64,Session 64,NA,null,img/encoding_events/Event_24.jpg,null,NA,NA,NA,NA,NA
NA,NA,NA,NA,NA,html-keyboard-response,10,290847,0.0-5.0-2.1,64,Study 64,Session 64,NA,null,Please press the <strong><u>s</u></strong> key to continue,null,response,s,0,FALSE,NA
NA,NA,NA,NA,NA,html-keyboard-response,11,291352,0.0-5.0-0.2,64,Study 64,Session 64,NA,null,"<div style=""font-size:60px;"">+</div>",null,fixation,NA,NA,NA,NA
NA,NA,NA,NA,NA,image-keyboard-response,12,297363,0.0-5.0-1.2,64,Study 64,Session 64,NA,null,img/encoding_events/Event_5.jpg,null,NA,NA,NA,NA,NA
NA,NA,NA,NA,NA,html-keyboard-response,13,297371,0.0-5.0-2.2,64,Study 64,Session 64,NA,null,Please press the <strong><u>j</u></strong> key to continue,null,response,j,0,FALSE,NA
NA,NA,NA,NA,NA,html-keyboard-response,14,297876,0.0-5.0-0.3,64,Study 64,Session 64,NA,null,"<div style=""font-size:60px;"">+</div>",null,fixation,NA,NA,NA,NA
NA,NA,NA,NA,NA,image-keyboard-response,15,303878,0.0-5.0-1.3,64,Study 64,Session 64,NA,null,img/encoding_events/Event_12.jpg,null,NA,NA,NA,NA,NA
NA,NA,NA,NA,NA,html-keyboard-response,16,306134,0.0-5.0-2.3,64,Study 64,Session 64,NA,2255,Please press the <strong><u>d</u></strong> key to continue,d,response,d,6000,TRUE,NA
NA,NA,NA,NA,NA,html-keyboard-response,17,306642,0.0-5.0-0.4,64,Study 64,Session 64,NA,null,"<div style=""font-size:60px;"">+</div>",null,fixation,NA,NA,NA,NA
NA,NA,NA,NA,NA,image-keyboard-response,18,312645,0.0-5.0-1.4,64,Study 64,Session 64,NA,null,img/encoding_events/Event_23.jpg,null,NA,NA,NA,NA,NA
NA,NA,NA,NA,NA,html-keyboard-response,19,312647,0.0-5.0-2.4,64,Study 64,Session 64,NA,null,Please press the <strong><u>a</u></strong> key to continue,null,response,a,0,FALSE,NA
NA,NA,NA,NA,NA,html-keyboard-response,20,313152,0.0-5.0-0.5,64,Study 64,Session 64,NA,null,"<div style=""font-size:60px;"">+</div>",null,fixation,NA,NA,NA,NA
NA,NA,NA,NA,NA,image-keyboard-response,21,319157,0.0-5.0-1.5,64,Study 64,Session 64,NA,null,img/encoding_events/Event_1.jpg,null,NA,NA,NA,NA,NA
NA,NA,NA,NA,NA,html-keyboard-response,22,319165,0.0-5.0-2.5,64,Study 64,Session 64,NA,null,Please press the <strong><u>f</u></strong> key to continue,null,response,f,0,FALSE,NA
NA,NA,NA,NA,NA,html-keyboard-response,23,319681,0.0-5.0-0.6,64,Study 64,Session 64,NA,null,"<div style=""font-size:60px;"">+</div>",null,fixation,NA,NA,NA,NA
NA,NA,NA,NA,NA,image-keyboard-response,24,325687,0.0-5.0-1.6,64,Study 64,Session 64,NA,null,img/encoding_events/Event_16.jpg,null,NA,NA,NA,NA,NA
NA,NA,NA,NA,NA,html-keyboard-response,25,325695,0.0-5.0-2.6,64,Study 64,Session 64,NA,null,Please press the <strong><u>a</u></strong> key to continue,null,response,a,0,FALSE,NA
NA,NA,NA,NA,NA,html-keyboard-response,26,326209,0.0-5.0-0.7,64,Study 64,Session 64,NA,null,"<div style=""font-size:60px;"">+</div>",null,fixation,NA,NA,NA,NA
NA,NA,NA,NA,NA,image-keyboard-response,27,332212,0.0-5.0-1.7,64,Study 64,Session 64,NA,null,img/encoding_events/Event_14.jpg,null,NA,NA,NA,NA,NA
NA,NA,NA,NA,NA,html-keyboard-response,28,333829,0.0-5.0-2.7,64,Study 64,Session 64,NA,1616,Please press the <strong><u>j</u></strong> key to continue,j,response,j,6000,TRUE,NA
NA,NA,NA,NA,NA,html-keyboard-response,29,334331,0.0-5.0-0.8,64,Study 64,Session 64,NA,null,"<div style=""font-size:60px;"">+</div>",null,fixation,NA,NA,NA,NA
NA,NA,NA,NA,NA,image-keyboard-response,30,340336,0.0-5.0-1.8,64,Study 64,Session 64,NA,null,img/encoding_events/Event_6.jpg,null,NA,NA,NA,NA,NA
NA,NA,NA,NA,NA,html-keyboard-response,31,340338,0.0-5.0-2.8,64,Study 64,Session 64,NA,null,Please press the <strong><u>j</u></strong> key to continue,null,response,j,0,FALSE,NA
NA,NA,NA,NA,NA,html-keyboard-response,32,340845,0.0-5.0-0.9,64,Study 64,Session 64,NA,null,"<div style=""font-size:60px;"">+</div>",null,fixation,NA,NA,NA,NA
NA,NA,NA,NA,NA,image-keyboard-response,33,346850,0.0-5.0-1.9,64,Study 64,Session 64,NA,null,img/encoding_events/Event_19.jpg,null,NA,NA,NA,NA,NA
NA,NA,NA,NA,NA,html-keyboard-response,34,346856,0.0-5.0-2.9,64,Study 64,Session 64,NA,null,Please press the <strong><u>j</u></strong> key to continue,null,response,j,0,FALSE,NA
NA,NA,NA,NA,NA,html-keyboard-response,35,347364,0.0-5.0-0.10,64,Study 64,Session 64,NA,null,"<div style=""font-size:60px;"">+</div>",null,fixation,NA,NA,NA,NA
NA,NA,NA,NA,NA,image-keyboard-response,36,353385,0.0-5.0-1.10,64,Study 64,Session 64,NA,null,img/encoding_events/Event_22.jpg,null,NA,NA,NA,NA,NA
NA,NA,NA,NA,NA,html-keyboard-response,37,353393,0.0-5.0-2.10,64,Study 64,Session 64,NA,null,Please press the <strong><u>s</u></strong> key to continue,null,response,s,0,FALSE,NA
NA,NA,NA,NA,NA,html-keyboard-response,38,353895,0.0-5.0-0.11,64,Study 64,Session 64,NA,null,"<div style=""font-size:60px;"">+</div>",null,fixation,NA,NA,NA,NA
NA,NA,NA,NA,NA,image-keyboard-response,39,359916,0.0-5.0-1.11,64,Study 64,Session 64,NA,null,img/encoding_events/Event_21.jpg,null,NA,NA,NA,NA,NA
NA,NA,NA,NA,NA,html-keyboard-response,40,361417,0.0-5.0-2.11,64,Study 64,Session 64,NA,1500,Please press the <strong><u>k</u></strong> key to continue,k,response,k,6000,TRUE,NA
NA,NA,NA,NA,NA,html-keyboard-response,41,361923,0.0-5.0-0.12,64,Study 64,Session 64,NA,null,"<div style=""font-size:60px;"">+</div>",null,fixation,NA,NA,NA,NA
NA,NA,NA,NA,NA,image-keyboard-response,42,367931,0.0-5.0-1.12,64,Study 64,Session 64,NA,null,img/encoding_events/Event_9.jpg,null,NA,NA,NA,NA,NA
NA,NA,NA,NA,NA,html-keyboard-response,43,367933,0.0-5.0-2.12,64,Study 64,Session 64,NA,null,Please press the <strong><u>k</u></strong> key to continue,null,response,k,0,FALSE,NA
NA,NA,NA,NA,NA,html-keyboard-response,44,368444,0.0-5.0-0.13,64,Study 64,Session 64,NA,null,"<div style=""font-size:60px;"">+</div>",null,fixation,NA,NA,NA,NA
NA,NA,NA,NA,NA,image-keyboard-response,45,374458,0.0-5.0-1.13,64,Study 64,Session 64,NA,null,img/encoding_events/Event_8.jpg,null,NA,NA,NA,NA,NA
NA,NA,NA,NA,NA,html-keyboard-response,46,374463,0.0-5.0-2.13,64,Study 64,Session 64,NA,null,Please press the <strong><u>j</u></strong> key to continue,null,response,j,0,FALSE,NA
NA,NA,NA,NA,NA,html-keyboard-response,47,374979,0.0-5.0-0.14,64,Study 64,Session 64,NA,null,"<div style=""font-size:60px;"">+</div>",null,fixation,NA,NA,NA,NA
NA,NA,NA,NA,NA,image-keyboard-response,48,380981,0.0-5.0-1.14,64,Study 64,Session 64,NA,null,img/encoding_events/Event_4.jpg,null,NA,NA,NA,NA,NA
NA,NA,NA,NA,NA,html-keyboard-response,49,380989,0.0-5.0-2.14,64,Study 64,Session 64,NA,null,Please press the <strong><u>k</u></strong> key to continue,null,response,k,0,FALSE,NA
NA,NA,NA,NA,NA,html-keyboard-response,50,381491,0.0-5.0-0.15,64,Study 64,Session 64,NA,null,"<div style=""font-size:60px;"">+</div>",null,fixation,NA,NA,NA,NA
NA,NA,NA,NA,NA,image-keyboard-response,51,387506,0.0-5.0-1.15,64,Study 64,Session 64,NA,null,img/encoding_events/Event_3.jpg,null,NA,NA,NA,NA,NA
NA,NA,NA,NA,NA,html-keyboard-response,52,389677,0.0-5.0-2.15,64,Study 64,Session 64,NA,2170,Please press the <strong><u>s</u></strong> key to continue,s,response,s,6000,TRUE,NA
NA,NA,NA,NA,NA,html-keyboard-response,53,390181,0.0-5.0-0.16,64,Study 64,Session 64,NA,null,"<div style=""font-size:60px;"">+</div>",null,fixation,NA,NA,NA,NA
NA,NA,NA,NA,NA,image-keyboard-response,54,396192,0.0-5.0-1.16,64,Study 64,Session 64,NA,null,img/encoding_events/Event_10.jpg,null,NA,NA,NA,NA,NA
NA,NA,NA,NA,NA,html-keyboard-response,55,396194,0.0-5.0-2.16,64,Study 64,Session 64,NA,null,Please press the <strong><u>k</u></strong> key to continue,null,response,k,0,FALSE,NA
NA,NA,NA,NA,NA,html-keyboard-response,56,396709,0.0-5.0-0.17,64,Study 64,Session 64,NA,null,"<div style=""font-size:60px;"">+</div>",null,fixation,NA,NA,NA,NA
NA,NA,NA,NA,NA,image-keyboard-response,57,402715,0.0-5.0-1.17,64,Study 64,Session 64,NA,null,img/encoding_events/Event_13.jpg,null,NA,NA,NA,NA,NA
NA,NA,NA,NA,NA,html-keyboard-response,58,402723,0.0-5.0-2.17,64,Study 64,Session 64,NA,null,Please press the <strong><u>k</u></strong> key to continue,null,response,k,0,FALSE,NA
NA,NA,NA,NA,NA,html-keyboard-response,59,403231,0.0-5.0-0.18,64,Study 64,Session 64,NA,null,"<div style=""font-size:60px;"">+</div>",null,fixation,NA,NA,NA,NA
NA,NA,NA,NA,NA,image-keyboard-response,60,409247,0.0-5.0-1.18,64,Study 64,Session 64,NA,null,img/encoding_events/Event_17.jpg,null,NA,NA,NA,NA,NA
NA,NA,NA,NA,NA,html-keyboard-response,61,409255,0.0-5.0-2.18,64,Study 64,Session 64,NA,null,Please press the <strong><u>k</u></strong> key to continue,null,response,k,0,FALSE,NA
NA,NA,NA,NA,NA,html-keyboard-response,62,409762,0.0-5.0-0.19,64,Study 64,Session 64,NA,null,"<div style=""font-size:60px;"">+</div>",null,fixation,NA,NA,NA,NA
NA,NA,NA,NA,NA,image-keyboard-response,63,415771,0.0-5.0-1.19,64,Study 64,Session 64,NA,null,img/encoding_events/Event_18.jpg,null,NA,NA,NA,NA,NA
NA,NA,NA,NA,NA,html-keyboard-response,64,417596,0.0-5.0-2.19,64,Study 64,Session 64,NA,1824,Please press the <strong><u>f</u></strong> key to continue,f,response,f,6000,TRUE,NA
NA,NA,NA,NA,NA,html-keyboard-response,65,418110,0.0-5.0-0.20,64,Study 64,Session 64,NA,null,"<div style=""font-size:60px;"">+</div>",null,fixation,NA,NA,NA,NA
NA,NA,NA,NA,NA,image-keyboard-response,66,424120,0.0-5.0-1.20,64,Study 64,Session 64,NA,null,img/encoding_events/Event_20.jpg,null,NA,NA,NA,NA,NA
NA,NA,NA,NA,NA,html-keyboard-response,67,424123,0.0-5.0-2.20,64,Study 64,Session 64,NA,null,Please press the <strong><u>a</u></strong> key to continue,null,response,a,0,FALSE,NA
NA,NA,NA,NA,NA,html-keyboard-response,68,424636,0.0-5.0-0.21,64,Study 64,Session 64,NA,null,"<div style=""font-size:60px;"">+</div>",null,fixation,NA,NA,NA,NA
NA,NA,NA,NA,NA,image-keyboard-response,69,430653,0.0-5.0-1.21,64,Study 64,Session 64,NA,null,img/encoding_events/Event_11.jpg,null,NA,NA,NA,NA,NA
NA,NA,NA,NA,NA,html-keyboard-response,70,430661,0.0-5.0-2.21,64,Study 64,Session 64,NA,null,Please press the <strong><u>f</u></strong> key to continue,null,response,f,0,FALSE,NA
NA,NA,NA,NA,NA,html-keyboard-response,71,431173,0.0-5.0-0.22,64,Study 64,Session 64,NA,null,"<div style=""font-size:60px;"">+</div>",null,fixation,NA,NA,NA,NA
NA,NA,NA,NA,NA,image-keyboard-response,72,437188,0.0-5.0-1.22,64,Study 64,Session 64,NA,null,img/encoding_events/Event_15.jpg,null,NA,NA,NA,NA,NA
NA,NA,NA,NA,NA,html-keyboard-response,73,437196,0.0-5.0-2.22,64,Study 64,Session 64,NA,null,Please press the <strong><u>a</u></strong> key to continue,null,response,a,0,FALSE,NA
NA,NA,NA,NA,NA,html-keyboard-response,74,437699,0.0-5.0-0.23,64,Study 64,Session 64,NA,null,"<div style=""font-size:60px;"">+</div>",null,fixation,NA,NA,NA,NA
NA,NA,NA,NA,NA,image-keyboard-response,75,443703,0.0-5.0-1.23,64,Study 64,Session 64,NA,null,img/encoding_events/Event_7.jpg,null,NA,NA,NA,NA,NA
NA,NA,NA,NA,NA,html-keyboard-response,76,445373,0.0-5.0-2.23,64,Study 64,Session 64,NA,1669,Please press the <strong><u>f</u></strong> key to continue,f,response,f,6000,TRUE,NA
NA,NA,NA,NA,NA,instructions,77,629649,0.0-6.0,64,Study 64,Session 64,"[{""page_index"":0,""viewing_time"":2652},{""page_index"":1,""viewing_time"":3888},{""page_index"":2,""viewing_time"":5098},{""page_index"":3,""viewing_time"":21918},{""page_index"":4,""viewing_time"":8528},{""page_index"":5,""viewing_time"":139768},{""page_index"":6,""viewing_time"":2424}]",184276,NA,NA,NA,NA,NA,NA,NA
NA,NA,NA,NA,NA,image-keyboard-response,78,635298,0.0-7.0-0.0-0.0,64,Study 64,Session 64,NA,3141,img/testing_events/Ac/Test_Ac_Event_6.jpg,c,response,c,NA,TRUE,Ac
NA,NA,NA,NA,NA,image-keyboard-response,79,638663,0.0-7.0-0.0-0.1,64,Study 64,Session 64,NA,3363,img/testing_events/Ac/Test_Ac_Event_12.jpg,u,response,e,NA,FALSE,Ac
NA,NA,NA,NA,NA,image-keyboard-response,80,640189,0.0-7.0-0.0-0.2,64,Study 64,Session 64,NA,1524,img/testing_events/Ac/Test_Ac_Event_14.jpg,c,response,c,NA,TRUE,Ac
NA,NA,NA,NA,NA,image-keyboard-response,81,642814,0.0-7.0-0.0-0.3,64,Study 64,Session 64,NA,2625,img/testing_events/Ac/Test_Ac_Event_18.jpg,c,response,c,NA,TRUE,Ac
NA,NA,NA,NA,NA,image-keyboard-response,82,645998,0.0-7.0-0.0-0.4,64,Study 64,Session 64,NA,3182,img/testing_events/Ac/Test_Ac_Event_17.jpg,u,response,u,NA,TRUE,Ac
NA,NA,NA,NA,NA,image-keyboard-response,83,649890,0.0-7.0-0.0-0.5,64,Study 64,Session 64,NA,3890,img/testing_events/Ac/Test_Ac_Event_8.jpg,e,response,e,NA,TRUE,Ac
NA,NA,NA,NA,NA,image-keyboard-response,84,653488,0.0-7.0-0.0-0.6,64,Study 64,Session 64,NA,3597,img/testing_events/Ac/Test_Ac_Event_2.jpg,n,response,c,NA,FALSE,Ac
NA,NA,NA,NA,NA,image-keyboard-response,85,657753,0.0-7.0-0.0-0.7,64,Study 64,Session 64,NA,4264,img/testing_events/Ac/Test_Ac_Event_9.jpg,u,response,u,NA,TRUE,Ac
NA,NA,NA,NA,NA,image-keyboard-response,86,661034,0.0-7.0-0.0-0.8,64,Study 64,Session 64,NA,3279,img/testing_events/Ac/Test_Ac_Event_7.jpg,n,response,n,NA,TRUE,Ac
NA,NA,NA,NA,NA,image-keyboard-response,87,662925,0.0-7.0-0.0-0.9,64,Study 64,Session 64,NA,1889,img/testing_events/Ac/Test_Ac_Event_16.jpg,e,response,e,NA,TRUE,Ac
NA,NA,NA,NA,NA,image-keyboard-response,88,667180,0.0-7.0-0.0-0.10,64,Study 64,Session 64,NA,4254,img/testing_events/Ac/Test_Ac_Event_10.jpg,c,response,c,NA,TRUE,Ac
NA,NA,NA,NA,NA,image-keyboard-response,89,669604,0.0-7.0-0.0-0.11,64,Study 64,Session 64,NA,2422,img/testing_events/Ac/Test_Ac_Event_21.jpg,n,response,u,NA,FALSE,Ac
NA,NA,NA,NA,NA,image-keyboard-response,90,672408,0.0-7.0-0.0-0.12,64,Study 64,Session 64,NA,2802,img/testing_events/Ac/Test_Ac_Event_1.jpg,u,response,u,NA,TRUE,Ac
NA,NA,NA,NA,NA,image-keyboard-response,91,674690,0.0-7.0-0.0-0.13,64,Study 64,Session 64,NA,2280,img/testing_events/Ac/Test_Ac_Event_15.jpg,n,response,n,NA,TRUE,Ac
NA,NA,NA,NA,NA,image-keyboard-response,92,680651,0.0-7.0-0.0-0.14,64,Study 64,Session 64,NA,5959,img/testing_events/Ac/Test_Ac_Event_3.jpg,e,response,n,NA,FALSE,Ac
NA,NA,NA,NA,NA,image-keyboard-response,93,686755,0.0-7.0-0.0-0.15,64,Study 64,Session 64,NA,6105,img/testing_events/Ac/Test_Ac_Event_11.jpg,c,response,n,NA,FALSE,Ac
NA,NA,NA,NA,NA,image-keyboard-response,94,692477,0.0-7.0-0.0-0.16,64,Study 64,Session 64,NA,5720,img/testing_events/Ac/Test_Ac_Event_23.jpg,n,response,n,NA,TRUE,Ac
NA,NA,NA,NA,NA,image-keyboard-response,95,694543,0.0-7.0-0.0-0.17,64,Study 64,Session 64,NA,2063,img/testing_events/Ac/Test_Ac_Event_24.jpg,e,response,e,NA,TRUE,Ac
NA,NA,NA,NA,NA,image-keyboard-response,96,697405,0.0-7.0-0.0-0.18,64,Study 64,Session 64,NA,2861,img/testing_events/Ac/Test_Ac_Event_13.jpg,e,response,u,NA,FALSE,Ac
NA,NA,NA,NA,NA,image-keyboard-response,97,701176,0.0-7.0-0.0-0.19,64,Study 64,Session 64,NA,3769,img/testing_events/Ac/Test_Ac_Event_5.jpg,e,response,u,NA,FALSE,Ac
NA,NA,NA,NA,NA,image-keyboard-response,98,703827,0.0-7.0-0.0-0.20,64,Study 64,Session 64,NA,2650,img/testing_events/Ac/Test_Ac_Event_22.jpg,n,response,c,NA,FALSE,Ac
NA,NA,NA,NA,NA,image-keyboard-response,99,710139,0.0-7.0-0.0-0.21,64,Study 64,Session 64,NA,6311,img/testing_events/Ac/Test_Ac_Event_4.jpg,n,response,e,NA,FALSE,Ac
NA,NA,NA,NA,NA,image-keyboard-response,100,712210,0.0-7.0-0.0-0.22,64,Study 64,Session 64,NA,2069,img/testing_events/Ac/Test_Ac_Event_20.jpg,e,response,e,NA,TRUE,Ac
NA,NA,NA,NA,NA,image-keyboard-response,101,715173,0.0-7.0-0.0-0.23,64,Study 64,Session 64,NA,2963,img/testing_events/Ac/Test_Ac_Event_19.jpg,e,response,n,NA,FALSE,Ac
NA,NA,NA,NA,NA,image-keyboard-response,102,718906,0.0-7.0-1.0-0.0,64,Study 64,Session 64,NA,3731,img/testing_events/Ba/Test_Ba_Event_16.jpg,u,response,u,NA,TRUE,Ba
NA,NA,NA,NA,NA,image-keyboard-response,103,721193,0.0-7.0-1.0-0.1,64,Study 64,Session 64,NA,2286,img/testing_events/Ba/Test_Ba_Event_10.jpg,e,response,n,NA,FALSE,Ba
NA,NA,NA,NA,NA,image-keyboard-response,104,722259,0.0-7.0-1.0-0.2,64,Study 64,Session 64,NA,1064,img/testing_events/Ba/Test_Ba_Event_15.jpg,e,response,e,NA,TRUE,Ba
NA,NA,NA,NA,NA,image-keyboard-response,105,724277,0.0-7.0-1.0-0.3,64,Study 64,Session 64,NA,2017,img/testing_events/Ba/Test_Ba_Event_7.jpg,e,response,e,NA,TRUE,Ba
NA,NA,NA,NA,NA,image-keyboard-response,106,726728,0.0-7.0-1.0-0.4,64,Study 64,Session 64,NA,2450,img/testing_events/Ba/Test_Ba_Event_14.jpg,n,response,n,NA,TRUE,Ba
NA,NA,NA,NA,NA,image-keyboard-response,107,729750,0.0-7.0-1.0-0.5,64,Study 64,Session 64,NA,3019,img/testing_events/Ba/Test_Ba_Event_11.jpg,e,response,e,NA,TRUE,Ba
NA,NA,NA,NA,NA,image-keyboard-response,108,731233,0.0-7.0-1.0-0.6,64,Study 64,Session 64,NA,1481,img/testing_events/Ba/Test_Ba_Event_23.jpg,e,response,e,NA,TRUE,Ba
NA,NA,NA,NA,NA,image-keyboard-response,109,736835,0.0-7.0-1.0-0.7,64,Study 64,Session 64,NA,5601,img/testing_events/Ba/Test_Ba_Event_12.jpg,c,response,u,NA,FALSE,Ba
NA,NA,NA,NA,NA,image-keyboard-response,110,739103,0.0-7.0-1.0-0.8,64,Study 64,Session 64,NA,2266,img/testing_events/Ba/Test_Ba_Event_22.jpg,n,response,n,NA,TRUE,Ba
NA,NA,NA,NA,NA,image-keyboard-response,111,743589,0.0-7.0-1.0-0.9,64,Study 64,Session 64,NA,4485,img/testing_events/Ba/Test_Ba_Event_8.jpg,u,response,u,NA,TRUE,Ba
NA,NA,NA,NA,NA,image-keyboard-response,112,747544,0.0-7.0-1.0-0.10,64,Study 64,Session 64,NA,3953,img/testing_events/Ba/Test_Ba_Event_21.jpg,e,response,c,NA,FALSE,Ba
NA,NA,NA,NA,NA,image-keyboard-response,113,751567,0.0-7.0-1.0-0.11,64,Study 64,Session 64,NA,4021,img/testing_events/Ba/Test_Ba_Event_5.jpg,c,response,c,NA,TRUE,Ba
NA,NA,NA,NA,NA,image-keyboard-response,114,754786,0.0-7.0-1.0-0.12,64,Study 64,Session 64,NA,3217,img/testing_events/Ba/Test_Ba_Event_2.jpg,n,response,n,NA,TRUE,Ba
NA,NA,NA,NA,NA,image-keyboard-response,115,760287,0.0-7.0-1.0-0.13,64,Study 64,Session 64,NA,5500,img/testing_events/Ba/Test_Ba_Event_4.jpg,u,response,u,NA,TRUE,Ba
NA,NA,NA,NA,NA,image-keyboard-response,116,762280,0.0-7.0-1.0-0.14,64,Study 64,Session 64,NA,1992,img/testing_events/Ba/Test_Ba_Event_1.jpg,c,response,c,NA,TRUE,Ba
NA,NA,NA,NA,NA,image-keyboard-response,117,767845,0.0-7.0-1.0-0.15,64,Study 64,Session 64,NA,5563,img/testing_events/Ba/Test_Ba_Event_20.jpg,u,response,u,NA,TRUE,Ba
NA,NA,NA,NA,NA,image-keyboard-response,118,769784,0.0-7.0-1.0-0.16,64,Study 64,Session 64,NA,1938,img/testing_events/Ba/Test_Ba_Event_24.jpg,u,response,u,NA,TRUE,Ba
NA,NA,NA,NA,NA,image-keyboard-response,119,776259,0.0-7.0-1.0-0.17,64,Study 64,Session 64,NA,6474,img/testing_events/Ba/Test_Ba_Event_6.jpg,n,response,n,NA,TRUE,Ba
NA,NA,NA,NA,NA,image-keyboard-response,120,779335,0.0-7.0-1.0-0.18,64,Study 64,Session 64,NA,3075,img/testing_events/Ba/Test_Ba_Event_3.jpg,e,response,e,NA,TRUE,Ba
NA,NA,NA,NA,NA,image-keyboard-response,121,783351,0.0-7.0-1.0-0.19,64,Study 64,Session 64,NA,4014,img/testing_events/Ba/Test_Ba_Event_13.jpg,u,response,c,NA,FALSE,Ba
NA,NA,NA,NA,NA,image-keyboard-response,122,785502,0.0-7.0-1.0-0.20,64,Study 64,Session 64,NA,2150,img/testing_events/Ba/Test_Ba_Event_17.jpg,c,response,c,NA,TRUE,Ba
NA,NA,NA,NA,NA,image-keyboard-response,123,786932,0.0-7.0-1.0-0.21,64,Study 64,Session 64,NA,1428,img/testing_events/Ba/Test_Ba_Event_19.jpg,e,response,e,NA,TRUE,Ba
NA,NA,NA,NA,NA,image-keyboard-response,124,789361,0.0-7.0-1.0-0.22,64,Study 64,Session 64,NA,2427,img/testing_events/Ba/Test_Ba_Event_9.jpg,c,response,c,NA,TRUE,Ba
NA,NA,NA,NA,NA,image-keyboard-response,125,792569,0.0-7.0-1.0-0.23,64,Study 64,Session 64,NA,3206,img/testing_events/Ba/Test_Ba_Event_18.jpg,n,response,n,NA,TRUE,Ba
NA,NA,NA,NA,NA,image-keyboard-response,126,797063,0.0-7.0-2.0-0.0,64,Study 64,Session 64,NA,4492,img/testing_events/Ca/Test_Ca_Event_22.jpg,u,response,u,NA,TRUE,Ca
NA,NA,NA,NA,NA,image-keyboard-response,127,805970,0.0-7.0-2.0-0.1,64,Study 64,Session 64,NA,8905,img/testing_events/Ca/Test_Ca_Event_10.jpg,c,response,u,NA,FALSE,Ca
NA,NA,NA,NA,NA,image-keyboard-response,128,808400,0.0-7.0-2.0-0.2,64,Study 64,Session 64,NA,2429,img/testing_events/Ca/Test_Ca_Event_14.jpg,u,response,u,NA,TRUE,Ca
NA,NA,NA,NA,NA,image-keyboard-response,129,809930,0.0-7.0-2.0-0.3,64,Study 64,Session 64,NA,1528,img/testing_events/Ca/Test_Ca_Event_9.jpg,e,response,e,NA,TRUE,Ca
NA,NA,NA,NA,NA,image-keyboard-response,130,811624,0.0-7.0-2.0-0.4,64,Study 64,Session 64,NA,1691,img/testing_events/Ca/Test_Ca_Event_1.jpg,e,response,e,NA,TRUE,Ca
NA,NA,NA,NA,NA,image-keyboard-response,131,817177,0.0-7.0-2.0-0.5,64,Study 64,Session 64,NA,5552,img/testing_events/Ca/Test_Ca_Event_21.jpg,e,response,e,NA,TRUE,Ca
NA,NA,NA,NA,NA,image-keyboard-response,132,819215,0.0-7.0-2.0-0.6,64,Study 64,Session 64,NA,2036,img/testing_events/Ca/Test_Ca_Event_15.jpg,c,response,c,NA,TRUE,Ca
NA,NA,NA,NA,NA,image-keyboard-response,133,827388,0.0-7.0-2.0-0.7,64,Study 64,Session 64,NA,8173,img/testing_events/Ca/Test_Ca_Event_4.jpg,n,response,n,NA,TRUE,Ca
NA,NA,NA,NA,NA,image-keyboard-response,134,833404,0.0-7.0-2.0-0.8,64,Study 64,Session 64,NA,6015,img/testing_events/Ca/Test_Ca_Event_19.jpg,e,response,c,NA,FALSE,Ca
NA,NA,NA,NA,NA,image-keyboard-response,135,837576,0.0-7.0-2.0-0.9,64,Study 64,Session 64,NA,4170,img/testing_events/Ca/Test_Ca_Event_2.jpg,u,response,u,NA,TRUE,Ca
NA,NA,NA,NA,NA,image-keyboard-response,136,844299,0.0-7.0-2.0-0.10,64,Study 64,Session 64,NA,6721,img/testing_events/Ca/Test_Ca_Event_18.jpg,e,response,u,NA,FALSE,Ca
NA,NA,NA,NA,NA,image-keyboard-response,137,850523,0.0-7.0-2.0-0.11,64,Study 64,Session 64,NA,6223,img/testing_events/Ca/Test_Ca_Event_12.jpg,n,response,n,NA,TRUE,Ca
NA,NA,NA,NA,NA,image-keyboard-response,138,852307,0.0-7.0-2.0-0.12,64,Study 64,Session 64,NA,1782,img/testing_events/Ca/Test_Ca_Event_20.jpg,n,response,n,NA,TRUE,Ca
NA,NA,NA,NA,NA,image-keyboard-response,139,855525,0.0-7.0-2.0-0.13,64,Study 64,Session 64,NA,3216,img/testing_events/Ca/Test_Ca_Event_23.jpg,c,response,c,NA,TRUE,Ca
NA,NA,NA,NA,NA,image-keyboard-response,140,860625,0.0-7.0-2.0-0.14,64,Study 64,Session 64,NA,5098,img/testing_events/Ca/Test_Ca_Event_11.jpg,u,response,c,NA,FALSE,Ca
NA,NA,NA,NA,NA,image-keyboard-response,141,862632,0.0-7.0-2.0-0.15,64,Study 64,Session 64,NA,2006,img/testing_events/Ca/Test_Ca_Event_7.jpg,c,response,c,NA,TRUE,Ca
NA,NA,NA,NA,NA,image-keyboard-response,142,872733,0.0-7.0-2.0-0.16,64,Study 64,Session 64,NA,10098,img/testing_events/Ca/Test_Ca_Event_5.jpg,n,response,e,NA,FALSE,Ca
NA,NA,NA,NA,NA,image-keyboard-response,143,875693,0.0-7.0-2.0-0.17,64,Study 64,Session 64,NA,2959,img/testing_events/Ca/Test_Ca_Event_24.jpg,n,response,n,NA,TRUE,Ca
NA,NA,NA,NA,NA,image-keyboard-response,144,877720,0.0-7.0-2.0-0.18,64,Study 64,Session 64,NA,2026,img/testing_events/Ca/Test_Ca_Event_16.jpg,n,response,n,NA,TRUE,Ca
NA,NA,NA,NA,NA,image-keyboard-response,145,882477,0.0-7.0-2.0-0.19,64,Study 64,Session 64,NA,4755,img/testing_events/Ca/Test_Ca_Event_17.jpg,e,response,e,NA,TRUE,Ca
NA,NA,NA,NA,NA,image-keyboard-response,146,887498,0.0-7.0-2.0-0.20,64,Study 64,Session 64,NA,5018,img/testing_events/Ca/Test_Ca_Event_13.jpg,e,response,e,NA,TRUE,Ca
NA,NA,NA,NA,NA,image-keyboard-response,147,891181,0.0-7.0-2.0-0.21,64,Study 64,Session 64,NA,3682,img/testing_events/Ca/Test_Ca_Event_6.jpg,u,response,u,NA,TRUE,Ca
NA,NA,NA,NA,NA,image-keyboard-response,148,898053,0.0-7.0-2.0-0.22,64,Study 64,Session 64,NA,6869,img/testing_events/Ca/Test_Ca_Event_8.jpg,n,response,n,NA,TRUE,Ca
NA,NA,NA,NA,NA,image-keyboard-response,149,901114,0.0-7.0-2.0-0.23,64,Study 64,Session 64,NA,3059,img/testing_events/Ca/Test_Ca_Event_3.jpg,c,response,c,NA,TRUE,Ca
NA,NA,NA,NA,NA,image-keyboard-response,150,913315,0.0-7.0-3.0-0.0,64,Study 64,Session 64,NA,12199,img/testing_events/Cb/Test_Cb_Event_13.jpg,u,response,u,NA,TRUE,Cb
NA,NA,NA,NA,NA,image-keyboard-response,151,920368,0.0-7.0-3.0-0.1,64,Study 64,Session 64,NA,7052,img/testing_events/Cb/Test_Cb_Event_8.jpg,e,response,e,NA,TRUE,Cb
NA,NA,NA,NA,NA,image-keyboard-response,152,922105,0.0-7.0-3.0-0.2,64,Study 64,Session 64,NA,1735,img/testing_events/Cb/Test_Cb_Event_15.jpg,n,response,n,NA,TRUE,Cb
NA,NA,NA,NA,NA,image-keyboard-response,153,930020,0.0-7.0-3.0-0.3,64,Study 64,Session 64,NA,7914,img/testing_events/Cb/Test_Cb_Event_12.jpg,e,response,e,NA,TRUE,Cb
NA,NA,NA,NA,NA,image-keyboard-response,154,933217,0.0-7.0-3.0-0.4,64,Study 64,Session 64,NA,3195,img/testing_events/Cb/Test_Cb_Event_6.jpg,c,response,c,NA,TRUE,Cb
NA,NA,NA,NA,NA,image-keyboard-response,155,937712,0.0-7.0-3.0-0.5,64,Study 64,Session 64,NA,4494,img/testing_events/Cb/Test_Cb_Event_5.jpg,u,response,u,NA,TRUE,Cb
NA,NA,NA,NA,NA,image-keyboard-response,156,942357,0.0-7.0-3.0-0.6,64,Study 64,Session 64,NA,4644,img/testing_events/Cb/Test_Cb_Event_11.jpg,n,response,n,NA,TRUE,Cb
NA,NA,NA,NA,NA,image-keyboard-response,157,944098,0.0-7.0-3.0-0.7,64,Study 64,Session 64,NA,1739,img/testing_events/Cb/Test_Cb_Event_1.jpg,u,response,u,NA,TRUE,Cb
NA,NA,NA,NA,NA,image-keyboard-response,158,947792,0.0-7.0-3.0-0.8,64,Study 64,Session 64,NA,3693,img/testing_events/Cb/Test_Cb_Event_18.jpg,c,response,c,NA,TRUE,Cb
NA,NA,NA,NA,NA,image-keyboard-response,159,949408,0.0-7.0-3.0-0.9,64,Study 64,Session 64,NA,1615,img/testing_events/Cb/Test_Cb_Event_3.jpg,n,response,n,NA,TRUE,Cb
NA,NA,NA,NA,NA,image-keyboard-response,160,950766,0.0-7.0-3.0-0.10,64,Study 64,Session 64,NA,1357,img/testing_events/Cb/Test_Cb_Event_23.jpg,n,response,n,NA,TRUE,Cb
NA,NA,NA,NA,NA,image-keyboard-response,161,952937,0.0-7.0-3.0-0.11,64,Study 64,Session 64,NA,2170,img/testing_events/Cb/Test_Cb_Event_21.jpg,u,response,u,NA,TRUE,Cb
NA,NA,NA,NA,NA,image-keyboard-response,162,955353,0.0-7.0-3.0-0.12,64,Study 64,Session 64,NA,2415,img/testing_events/Cb/Test_Cb_Event_7.jpg,n,response,n,NA,TRUE,Cb
NA,NA,NA,NA,NA,image-keyboard-response,163,956720,0.0-7.0-3.0-0.13,64,Study 64,Session 64,NA,1365,img/testing_events/Cb/Test_Cb_Event_22.jpg,c,response,c,NA,TRUE,Cb
NA,NA,NA,NA,NA,image-keyboard-response,164,957947,0.0-7.0-3.0-0.14,64,Study 64,Session 64,NA,1226,img/testing_events/Cb/Test_Cb_Event_17.jpg,u,response,u,NA,TRUE,Cb
NA,NA,NA,NA,NA,image-keyboard-response,165,960122,0.0-7.0-3.0-0.15,64,Study 64,Session 64,NA,2174,img/testing_events/Cb/Test_Cb_Event_19.jpg,e,response,n,NA,FALSE,Cb
NA,NA,NA,NA,NA,image-keyboard-response,166,962164,0.0-7.0-3.0-0.16,64,Study 64,Session 64,NA,2041,img/testing_events/Cb/Test_Cb_Event_20.jpg,e,response,e,NA,TRUE,Cb
NA,NA,NA,NA,NA,image-keyboard-response,167,963855,0.0-7.0-3.0-0.17,64,Study 64,Session 64,NA,1689,img/testing_events/Cb/Test_Cb_Event_14.jpg,c,response,c,NA,TRUE,Cb
NA,NA,NA,NA,NA,image-keyboard-response,168,967146,0.0-7.0-3.0-0.18,64,Study 64,Session 64,NA,3290,img/testing_events/Cb/Test_Cb_Event_9.jpg,u,response,u,NA,TRUE,Cb
NA,NA,NA,NA,NA,image-keyboard-response,169,972166,0.0-7.0-3.0-0.19,64,Study 64,Session 64,NA,5019,img/testing_events/Cb/Test_Cb_Event_10.jpg,e,response,c,NA,FALSE,Cb
NA,NA,NA,NA,NA,image-keyboard-response,170,974751,0.0-7.0-3.0-0.20,64,Study 64,Session 64,NA,2584,img/testing_events/Cb/Test_Cb_Event_4.jpg,e,response,e,NA,TRUE,Cb
NA,NA,NA,NA,NA,image-keyboard-response,171,976500,0.0-7.0-3.0-0.21,64,Study 64,Session 64,NA,1748,img/testing_events/Cb/Test_Cb_Event_16.jpg,e,response,e,NA,TRUE,Cb
NA,NA,NA,NA,NA,image-keyboard-response,172,978068,0.0-7.0-3.0-0.22,64,Study 64,Session 64,NA,1567,img/testing_events/Cb/Test_Cb_Event_24.jpg,e,response,e,NA,TRUE,Cb
NA,NA,NA,NA,NA,image-keyboard-response,173,980795,0.0-7.0-3.0-0.23,64,Study 64,Session 64,NA,2726,img/testing_events/Cb/Test_Cb_Event_2.jpg,n,response,c,NA,FALSE,Cb
NA,NA,NA,NA,NA,image-keyboard-response,174,982026,0.0-7.0-4.0-0.0,64,Study 64,Session 64,NA,1230,img/testing_events/Ab/Test_Ab_Event_15.jpg,c,response,c,NA,TRUE,Ab
NA,NA,NA,NA,NA,image-keyboard-response,175,983244,0.0-7.0-4.0-0.1,64,Study 64,Session 64,NA,1217,img/testing_events/Ab/Test_Ab_Event_3.jpg,c,response,c,NA,TRUE,Ab
NA,NA,NA,NA,NA,image-keyboard-response,176,984237,0.0-7.0-4.0-0.2,64,Study 64,Session 64,NA,991,img/testing_events/Ab/Test_Ab_Event_1.jpg,e,response,e,NA,TRUE,Ab
NA,NA,NA,NA,NA,image-keyboard-response,177,988895,0.0-7.0-4.0-0.3,64,Study 64,Session 64,NA,4657,img/testing_events/Ab/Test_Ab_Event_12.jpg,n,response,n,NA,TRUE,Ab
NA,NA,NA,NA,NA,image-keyboard-response,178,991884,0.0-7.0-4.0-0.4,64,Study 64,Session 64,NA,2988,img/testing_events/Ab/Test_Ab_Event_20.jpg,n,response,n,NA,TRUE,Ab
NA,NA,NA,NA,NA,image-keyboard-response,179,992826,0.0-7.0-4.0-0.5,64,Study 64,Session 64,NA,941,img/testing_events/Ab/Test_Ab_Event_24.jpg,n,response,n,NA,TRUE,Ab
NA,NA,NA,NA,NA,image-keyboard-response,180,993779,0.0-7.0-4.0-0.6,64,Study 64,Session 64,NA,952,img/testing_events/Ab/Test_Ab_Event_16.jpg,n,response,n,NA,TRUE,Ab
NA,NA,NA,NA,NA,image-keyboard-response,181,995730,0.0-7.0-4.0-0.7,64,Study 64,Session 64,NA,1949,img/testing_events/Ab/Test_Ab_Event_9.jpg,e,response,e,NA,TRUE,Ab
NA,NA,NA,NA,NA,image-keyboard-response,182,997722,0.0-7.0-4.0-0.8,64,Study 64,Session 64,NA,1990,img/testing_events/Ab/Test_Ab_Event_14.jpg,u,response,u,NA,TRUE,Ab
NA,NA,NA,NA,NA,image-keyboard-response,183,999559,0.0-7.0-4.0-0.9,64,Study 64,Session 64,NA,1836,img/testing_events/Ab/Test_Ab_Event_7.jpg,c,response,c,NA,TRUE,Ab
NA,NA,NA,NA,NA,image-keyboard-response,184,1005214,0.0-7.0-4.0-0.10,64,Study 64,Session 64,NA,5653,img/testing_events/Ab/Test_Ab_Event_4.jpg,n,response,n,NA,TRUE,Ab
NA,NA,NA,NA,NA,image-keyboard-response,185,1009135,0.0-7.0-4.0-0.11,64,Study 64,Session 64,NA,3920,img/testing_events/Ab/Test_Ab_Event_2.jpg,u,response,u,NA,TRUE,Ab
NA,NA,NA,NA,NA,image-keyboard-response,186,1010350,0.0-7.0-4.0-0.12,64,Study 64,Session 64,NA,1214,img/testing_events/Ab/Test_Ab_Event_19.jpg,c,response,c,NA,TRUE,Ab
NA,NA,NA,NA,NA,image-keyboard-response,187,1013554,0.0-7.0-4.0-0.13,64,Study 64,Session 64,NA,3202,img/testing_events/Ab/Test_Ab_Event_8.jpg,n,response,n,NA,TRUE,Ab
NA,NA,NA,NA,NA,image-keyboard-response,188,1018125,0.0-7.0-4.0-0.14,64,Study 64,Session 64,NA,4570,img/testing_events/Ab/Test_Ab_Event_10.jpg,u,response,u,NA,TRUE,Ab
NA,NA,NA,NA,NA,image-keyboard-response,189,1022371,0.0-7.0-4.0-0.15,64,Study 64,Session 64,NA,4244,img/testing_events/Ab/Test_Ab_Event_18.jpg,u,response,u,NA,TRUE,Ab
NA,NA,NA,NA,NA,image-keyboard-response,190,1024469,0.0-7.0-4.0-0.16,64,Study 64,Session 64,NA,2097,img/testing_events/Ab/Test_Ab_Event_6.jpg,u,response,u,NA,TRUE,Ab
NA,NA,NA,NA,NA,image-keyboard-response,191,1025634,0.0-7.0-4.0-0.17,64,Study 64,Session 64,NA,1164,img/testing_events/Ab/Test_Ab_Event_22.jpg,u,response,u,NA,TRUE,Ab
NA,NA,NA,NA,NA,image-keyboard-response,192,1027534,0.0-7.0-4.0-0.18,64,Study 64,Session 64,NA,1899,img/testing_events/Ab/Test_Ab_Event_21.jpg,e,response,e,NA,TRUE,Ab
NA,NA,NA,NA,NA,image-keyboard-response,193,1028733,0.0-7.0-4.0-0.19,64,Study 64,Session 64,NA,1197,img/testing_events/Ab/Test_Ab_Event_13.jpg,e,response,e,NA,TRUE,Ab
NA,NA,NA,NA,NA,image-keyboard-response,194,1029809,0.0-7.0-4.0-0.20,64,Study 64,Session 64,NA,1075,img/testing_events/Ab/Test_Ab_Event_17.jpg,e,response,e,NA,TRUE,Ab
NA,NA,NA,NA,NA,image-keyboard-response,195,1031100,0.0-7.0-4.0-0.21,64,Study 64,Session 64,NA,1291,img/testing_events/Ab/Test_Ab_Event_23.jpg,c,response,c,NA,TRUE,Ab
NA,NA,NA,NA,NA,image-keyboard-response,196,1032970,0.0-7.0-4.0-0.22,64,Study 64,Session 64,NA,1869,img/testing_events/Ab/Test_Ab_Event_11.jpg,c,response,c,NA,TRUE,Ab
NA,NA,NA,NA,NA,image-keyboard-response,197,1034613,0.0-7.0-4.0-0.23,64,Study 64,Session 64,NA,1641,img/testing_events/Ab/Test_Ab_Event_5.jpg,e,response,e,NA,TRUE,Ab
NA,NA,NA,NA,NA,image-keyboard-response,198,1036830,0.0-7.0-5.0-0.0,64,Study 64,Session 64,NA,2216,img/testing_events/Bc/Test_Bc_Event_14.jpg,e,response,e,NA,TRUE,Bc
NA,NA,NA,NA,NA,image-keyboard-response,199,1040202,0.0-7.0-5.0-0.1,64,Study 64,Session 64,NA,3370,img/testing_events/Bc/Test_Bc_Event_2.jpg,e,response,e,NA,TRUE,Bc
NA,NA,NA,NA,NA,image-keyboard-response,200,1044134,0.0-7.0-5.0-0.2,64,Study 64,Session 64,NA,3931,img/testing_events/Bc/Test_Bc_Event_11.jpg,u,response,u,NA,TRUE,Bc
NA,NA,NA,NA,NA,image-keyboard-response,201,1046094,0.0-7.0-5.0-0.3,64,Study 64,Session 64,NA,1959,img/testing_events/Bc/Test_Bc_Event_18.jpg,e,response,e,NA,TRUE,Bc
NA,NA,NA,NA,NA,image-keyboard-response,202,1052461,0.0-7.0-5.0-0.4,64,Study 64,Session 64,NA,6366,img/testing_events/Bc/Test_Bc_Event_10.jpg,c,response,e,NA,FALSE,Bc
NA,NA,NA,NA,NA,image-keyboard-response,203,1053942,0.0-7.0-5.0-0.5,64,Study 64,Session 64,NA,1479,img/testing_events/Bc/Test_Bc_Event_1.jpg,n,response,n,NA,TRUE,Bc
NA,NA,NA,NA,NA,image-keyboard-response,204,1055305,0.0-7.0-5.0-0.6,64,Study 64,Session 64,NA,1361,img/testing_events/Bc/Test_Bc_Event_16.jpg,c,response,c,NA,TRUE,Bc
NA,NA,NA,NA,NA,image-keyboard-response,205,1057746,0.0-7.0-5.0-0.7,64,Study 64,Session 64,NA,2440,img/testing_events/Bc/Test_Bc_Event_12.jpg,c,response,c,NA,TRUE,Bc
NA,NA,NA,NA,NA,image-keyboard-response,206,1058984,0.0-7.0-5.0-0.8,64,Study 64,Session 64,NA,1237,img/testing_events/Bc/Test_Bc_Event_23.jpg,u,response,u,NA,TRUE,Bc
NA,NA,NA,NA,NA,image-keyboard-response,207,1060618,0.0-7.0-5.0-0.9,64,Study 64,Session 64,NA,1632,img/testing_events/Bc/Test_Bc_Event_3.jpg,u,response,u,NA,TRUE,Bc
NA,NA,NA,NA,NA,image-keyboard-response,208,1064693,0.0-7.0-5.0-0.10,64,Study 64,Session 64,NA,4073,img/testing_events/Bc/Test_Bc_Event_7.jpg,u,response,u,NA,TRUE,Bc
NA,NA,NA,NA,NA,image-keyboard-response,209,1071799,0.0-7.0-5.0-0.11,64,Study 64,Session 64,NA,7105,img/testing_events/Bc/Test_Bc_Event_19.jpg,u,response,u,NA,TRUE,Bc
NA,NA,NA,NA,NA,image-keyboard-response,210,1072726,0.0-7.0-5.0-0.12,64,Study 64,Session 64,NA,924,img/testing_events/Bc/Test_Bc_Event_15.jpg,u,response,u,NA,TRUE,Bc
NA,NA,NA,NA,NA,image-keyboard-response,211,1075017,0.0-7.0-5.0-0.13,64,Study 64,Session 64,NA,2289,img/testing_events/Bc/Test_Bc_Event_8.jpg,c,response,c,NA,TRUE,Bc
NA,NA,NA,NA,NA,image-keyboard-response,212,1076740,0.0-7.0-5.0-0.14,64,Study 64,Session 64,NA,1722,img/testing_events/Bc/Test_Bc_Event_20.jpg,c,response,c,NA,TRUE,Bc
NA,NA,NA,NA,NA,image-keyboard-response,213,1078091,0.0-7.0-5.0-0.15,64,Study 64,Session 64,NA,1350,img/testing_events/Bc/Test_Bc_Event_6.jpg,e,response,e,NA,TRUE,Bc
NA,NA,NA,NA,NA,image-keyboard-response,214,1080088,0.0-7.0-5.0-0.16,64,Study 64,Session 64,NA,1996,img/testing_events/Bc/Test_Bc_Event_24.jpg,c,response,c,NA,TRUE,Bc
NA,NA,NA,NA,NA,image-keyboard-response,215,1084790,0.0-7.0-5.0-0.17,64,Study 64,Session 64,NA,4700,img/testing_events/Bc/Test_Bc_Event_4.jpg,c,response,c,NA,TRUE,Bc
NA,NA,NA,NA,NA,image-keyboard-response,216,1089538,0.0-7.0-5.0-0.18,64,Study 64,Session 64,NA,4747,img/testing_events/Bc/Test_Bc_Event_9.jpg,n,response,n,NA,TRUE,Bc
NA,NA,NA,NA,NA,image-keyboard-response,217,1093398,0.0-7.0-5.0-0.19,64,Study 64,Session 64,NA,3859,img/testing_events/Bc/Test_Bc_Event_5.jpg,n,response,n,NA,TRUE,Bc
NA,NA,NA,NA,NA,image-keyboard-response,218,1096172,0.0-7.0-5.0-0.20,64,Study 64,Session 64,NA,2772,img/testing_events/Bc/Test_Bc_Event_21.jpg,n,response,n,NA,TRUE,Bc
NA,NA,NA,NA,NA,image-keyboard-response,219,1097325,0.0-7.0-5.0-0.21,64,Study 64,Session 64,NA,1151,img/testing_events/Bc/Test_Bc_Event_22.jpg,e,response,e,NA,TRUE,Bc
NA,NA,NA,NA,NA,image-keyboard-response,220,1098803,0.0-7.0-5.0-0.22,64,Study 64,Session 64,NA,1477,img/testing_events/Bc/Test_Bc_Event_17.jpg,n,response,n,NA,TRUE,Bc
NA,NA,NA,NA,NA,image-keyboard-response,221,1101592,0.0-7.0-5.0-0.23,64,Study 64,Session 64,NA,2787,img/testing_events/Bc/Test_Bc_Event_13.jpg,n,response,n,NA,TRUE,Bc
NA,NA,NA,NA,NA,survey-text,222,1115213,0.0-8.0,64,Study 64,Session 64,NA,13611,NA,"{""Q0"":""no"",""Q1"":""none"",""Q2"":""""}",NA,NA,NA,NA,NA
NA,NA,NA,NA,NA,survey-html-form,223,1139163,0.0-9.0,64,Study 64,Session 64,NA,23949,NA,"{""Gender"":""Female"",""Age"":""31"",""ColorBlind"":""No"",""Education"":""Bachelors degree"",""Income"":""$25,000-$49,999"",""Race"":""Asian/Pacific Islander"",""Fluent"":""Yes"",""AgeEnglish"":""3"",""Country"":""USA""}",NA,NA,NA,NA,NA
TRUE,NA,NA,NA,NA,fullscreen,224,1139166,0.0-10.0,64,Study 64,Session 64,NA,NA,NA,NA,NA,NA,NA,NA,NA
