success,timeout,failed_images,failed_audio,failed_video,trial_type,trial_index,time_elapsed,internal_node_id,subject_id,study_id,session_id,view_history,rt,stimulus,response,task,correct_response,attention_duration,correct,retrieval_group
TRUE,FALSE,[],[],[],preload,0,37504,0.0-0.0,73,Study 73,Session 73,NA,NA,NA,NA,NA,NA,NA,NA,NA
TRUE,NA,NA,NA,NA,fullscreen,1,43957,0.0-1.0,73,Study 73,Session 73,NA,NA,NA,NA,NA,NA,NA,NA,NA
NA,NA,NA,NA,NA,instructions,2,49171,0.0-2.0,73,Study 73,Session 73,"[{""page_index"":0,""viewing_time"":5212}]",5212,NA,NA,NA,NA,NA,NA,NA
NA,NA,NA,NA,NA,html-keyboard-response,3,57200,0.0-3.0,73,Study 73,Session 73,NA,8027,"Welcome to the experiment. <br /><br />This experiment will take about 20 minutes. Please complete all in one sitting. <br /><br />For this study, <strong>please use</strong> a laptop or desktop computer (not a mobile phone or tablet). Also, please use either <u>Chrome or Firefox</u>. <br /><br />Once you begin, <strong>DO NOT</strong> refresh the browser, as the experiment will reset and you will lose your progress. <br /><br />Press the <strong class=""upperline"">B</strong> key on your keyboard to begin.",b,NA,NA,NA,NA,NA
NA,NA,NA,NA,NA,instructions,4,79658,0.0-4.0,73,Study 73,Session 73,"[{""page_index"":0,""viewing_time"":8783},{""page_index"":1,""viewing_time"":8849},{""page_index"":2,""viewing_time"":3824}]",21456,NA,NA,NA,NA,NA,NA,NA
NA,NA,NA,NA,NA,html-keyboard-response,5,82661,0.0-5.0-0.0,73,Study 73,Session 73,NA,null,"<div style=""font-size:60px;"">+</div>",null,fixation,NA,NA,NA,NA
NA,NA,NA,NA,NA,image-keyboard-response,6,88673,0.0-5.0-1.0,73,Study 73,Session 73,NA,null,img/encoding_events/Event_18.jpg,null,NA,NA,NA,NA,NA
NA,NA,NA,NA,NA,html-keyboard-response,7,88675,0.0-5.0-2.0,73,Study 73,Session 73,NA,null,Please press the <strong><u>k</u></strong> key to continue,null,response,k,0,FALSE,NA
NA,NA,NA,NA,NA,html-keyboard-response,8,89177,0.0-5.0-0.1,73,Study 73,Session 73,NA,null,"<div style=""font-size:60px;"">+</div>",null,fixation,NA,NA,NA,NA
NA,NA,NA,NA,NA,image-keyboard-response,9,95188,0.0-5.0-1.1,73,Study 73,Session 73,NA,null,img/encoding_events/Event_15.jpg,null,NA,NA,NA,NA,NA
NA,NA,NA,NA,NA,html-keyboard-response,10,95189,0.0-5.0-2.1,73,Study 73,Session 73,NA,null,Please press the <strong><u>f</u></strong> key to continue,null,response,f,0,FALSE,NA
NA,NA,NA,NA,NA,html-keyboard-response,11,95691,0.0-5.0-0.2,73,Study 73,Session 73,NA,null,"<div style=""font-size:60px;"">+</div>",null,fixation,NA,NA,NA,NA
NA,NA,NA,NA,NA,image-keyboard-response,12,101702,0.0-5.0-1.2,73,Study 73,Session 73,NA,null,img/encoding_events/Event_21.jpg,null,NA,NA,NA,NA,NA
NA,NA,NA,NA,NA,html-keyboard-response,13,101704,0.0-5.0-2.2,73,Study 73,Session 73,NA,null,Please press the <strong><u>s</u></strong> key to continue,null,response,s,0,FALSE,NA
NA,NA,NA,NA,NA,html-keyboard-response,14,102205,0.0-5.0-0.3,73,Study 73,Session 73,NA,null,"<div style=""font-size:60px;"">+</div>",null,fixation,NA,NA,NA,NA
NA,NA,NA,NA,NA,image-keyboard-response,15,108216,0.0-5.0-1.3,73,Study 73,Session 73,NA,null,img/encoding_events/Event_24.jpg,null,NA,NA,NA,NA,NA
NA,NA,NA,NA,NA,html-keyboard-response,16,109928,0.0-5.0-2.3,73,Study 73,Session 73,NA,1710,Please press the <strong><u>j</u></strong> key to continue,j,response,j,6000,TRUE,NA
NA,NA,NA,NA,NA,html-keyboard-response,17,110431,0.0-5.0-0.4,73,Study 73,Session 73,NA,null,"<div style=""font-size:60px;"">+</div>",null,fixation,NA,NA,NA,NA
NA,NA,NA,NA,NA,image-keyboard-response,18,116442,0.0-5.0-1.4,73,Study 73,Session 73,NA,null,img/encoding_events/Event_7.jpg,null,NA,NA,NA,NA,NA
NA,NA,NA,NA,NA,html-keyboard-response,19,116444,0.0-5.0-2.4,73,Study 73,Session 73,NA,null,Please press the <strong><u>s</u></strong> key to continue,null,response,s,0,FALSE,NA
NA,NA,NA,NA,NA,html-keyboard-response,20,116946,0.0-5.0-0.5,73,Study 73,Session 73,NA,null,"<div style=""font-size:60px;"">+</div>",null,fixation,NA,NA,NA,NA
NA,NA,NA,NA,NA,image-keyboard-response,21,122956,0.0-5.0-1.5,73,Study 73,Session 73,NA,null,img/encoding_events/Event_20.jpg,null,NA,NA,NA,NA,NA
NA,NA,NA,NA,NA,html-keyboard-response,22,122957,0.0-5.0-2.5,73,Study 73,Session 73,NA,null,Please press the <strong><u>f</u></strong> key to continue,null,response,f,0,FALSE,NA
NA,NA,NA,NA,NA,html-keyboard-response,23,123459,0.0-5.0-0.6,73,Study 73,Session 73,NA,null,"<div style=""font-size:60px;"">+</div>",null,fixation,NA,NA,NA,NA
NA,NA,NA,NA,NA,image-keyboard-response,24,129473,0.0-5.0-1.6,73,Study 73,Session 73,NA,null,img/encoding_events/Event_6.jpg,null,NA,NA,NA,NA,NA
NA,NA,NA,NA,NA,html-keyboard-response,25,129476,0.0-5.0-2.6,73,Study 73,Session 73,NA,null,Please press the <strong><u>d</u></strong> key to continue,null,response,d,0,FALSE,NA
NA,NA,NA,NA,NA,html-keyboard-response,26,129977,0.0-5.0-0.7,73,Study 73,Session 73,NA,null,"<div style=""font-size:60px;"">+</div>",null,fixation,NA,NA,NA,NA
NA,NA,NA,NA,NA,image-keyboard-response,27,135987,0.0-5.0-1.7,73,Study 73,Session 73,NA,null,img/encoding_events/Event_1.jpg,null,NA,NA,NA,NA,NA
NA,NA,NA,NA,NA,html-keyboard-response,28,137095,0.0-5.0-2.7,73,Study 73,Session 73,NA,1102,Please press the <strong><u>j</u></strong> key to continue,j,response,j,6000,TRUE,NA
NA,NA,NA,NA,NA,html-keyboard-response,29,137598,0.0-5.0-0.8,73,Study 73,Session 73,NA,null,"<div style=""font-size:60px;"">+</div>",null,fixation,NA,NA,NA,NA
NA,NA,NA,NA,NA,image-keyboard-response,30,143609,0.0-5.0-1.8,73,Study 73,Session 73,NA,null,img/encoding_events/Event_9.jpg,null,NA,NA,NA,NA,NA
NA,NA,NA,NA,NA,html-keyboard-response,31,143611,0.0-5.0-2.8,73,Study 73,Session 73,NA,null,Please press the <strong><u>k</u></strong> key to continue,null,response,k,0,FALSE,NA
NA,NA,NA,NA,NA,html-keyboard-response,32,144113,0.0-5.0-0.9,73,Study 73,Session 73,NA,null,"<div style=""font-size:60px;"">+</div>",null,fixation,NA,NA,NA,NA
NA,NA,NA,NA,NA,image-keyboard-response,33,150123,0.0-5.0-1.9,73,Study 73,Session 73,NA,null,img/encoding_events/Event_17.jpg,null,NA,NA,NA,NA,NA
NA,NA,NA,NA,NA,html-keyboard-response,34,150125,0.0-5.0-2.9,73,Study 73,Session 73,NA,null,Please press the <strong><u>j</u></strong> key to continue,null,response,j,0,FALSE,NA
NA,NA,NA,NA,NA,html-keyboard-response,35,150627,0.0-5.0-0.10,73,Study 73,Session 73,NA,null,"<div style=""font-size:60px;"">+</div>",null,fixation,NA,NA,NA,NA
NA,NA,NA,NA,NA,image-keyboard-response,36,156637,0.0-5.0-1.10,73,Study 73,Session 73,NA,null,img/encoding_events/Event_22.jpg,null,NA,NA,NA,NA,NA
NA,NA,NA,NA,NA,html-keyboard-response,37,156639,0.0-5.0-2.10,73,Study 73,Session 73,NA,null,Please press the <strong><u>s</u></strong> key to continue,null,response,s,0,FALSE,NA
NA,NA,NA,NA,NA,html-keyboard-response,38,157141,0.0-5.0-0.11,73,Study 73,Session 73,NA,null,"<div style=""font-size:60px;"">+</div>",null,fixation,NA,NA,NA,NA
NA,NA,NA,NA,NA,image-keyboard-response,39,163151,0.0-5.0-1.11,73,Study 73,Session 73,NA,null,img/encoding_events/Event_19.jpg,null,NA,NA,NA,NA,NA
NA,NA,NA,NA,NA,html-keyboard-response,40,164634,0.0-5.0-2.11,73,Study 73,Session 73,NA,1481,Please press the <strong><u>s</u></strong> key to continue,s,response,s,6000,TRUE,NA
NA,NA,NA,NA,NA,html-keyboard-response,41,165137,0.0-5.0-0.12,73,Study 73,Session 73,NA,null,"<div style=""font-size:60px;"">+</div>",null,fixation,NA,NA,NA,NA
NA,NA,NA,NA,NA,image-keyboard-response,42,171148,0.0-5.0-1.12,73,Study 73,Session 73,NA,null,img/encoding_events/Event_3.jpg,null,NA,NA,NA,NA,NA
NA,NA,NA,NA,NA,html-keyboard-response,43,171150,0.0-5.0-2.12,73,Study 73,Session 73,NA,null,Please press the <strong><u>s</u></strong> key to continue,null,response,s,0,FALSE,NA
NA,NA,NA,NA,NA,html-keyboard-response,44,171652,0.0-5.0-0.13,73,Study 73,Session 73,NA,null,"<div style=""font-size:60px;"">+</div>",null,fixation,NA,NA,NA,NA
NA,NA,NA,NA,NA,image-keyboard-response,45,177662,0.0-5.0-1.13,73,Study 73,Session 73,NA,null,img/encoding_events/Event_23.jpg,null,NA,NA,NA,NA,NA
NA,NA,NA,NA,NA,html-keyboard-response,46,177667,0.0-5.0-2.13,73,Study 73,Session 73,NA,null,Please press the <strong><u>a</u></strong> key to continue,null,response,a,0,FALSE,NA
NA,NA,NA,NA,NA,html-keyboard-response,47,178169,0.0-5.0-0.14,73,Study 73,Session 73,NA,null,"<div style=""font-size:60px;"">+</div>",null,fixation,NA,NA,NA,NA
NA,NA,NA,NA,NA,image-keyboard-response,48,184180,0.0-5.0-1.14,73,Study 73,Session 73,NA,null,img/encoding_events/Event_4.jpg,null,NA,NA,NA,NA,NA
NA,NA,NA,NA,NA,html-keyboard-response,49,184181,0.0-5.0-2.14,73,Study 73,Session 73,NA,null,Please press the <strong><u>j</u></strong> key to continue,null,response,j,0,FALSE,NA
NA,NA,NA,NA,NA,html-keyboard-response,50,184683,0.0-5.0-0.15,73,Study 73,Session 73,NA,null,"<div style=""font-size:60px;"">+</div>",null,fixation,NA,NA,NA,NA
NA,NA,NA,NA,NA,image-keyboard-response,51,190694,0.0-5.0-1.15,73,Study 73,Session 73,NA,null,img/encoding_events/Event_10.jpg,null,NA,NA,NA,NA,NA
NA,NA,NA,NA,NA,html-keyboard-response,52,192732,0.0-5.0-2.15,73,Study 73,Session 73,NA,2034,Please press the <strong><u>a</u></strong> key to continue,a,response,a,6000,TRUE,NA
NA,NA,NA,NA,NA,html-keyboard-response,53,193235,0.0-5.0-0.16,73,Study 73,Session 73,NA,null,"<div style=""font-size:60px;"">+</div>",null,fixation,NA,NA,NA,NA
NA,NA,NA,NA,NA,image-keyboard-response,54,199247,0.0-5.0-1.16,73,Study 73,Session 73,NA,null,img/encoding_events/Event_12.jpg,null,NA,NA,NA,NA,NA
NA,NA,NA,NA,NA,html-keyboard-response,55,199251,0.0-5.0-2.16,73,Study 73,Session 73,NA,null,Please press the <strong><u>a</u></strong> key to continue,null,response,a,0,FALSE,NA
NA,NA,NA,NA,NA,html-keyboard-response,56,199752,0.0-5.0-0.17,73,Study 73,Session 73,NA,null,"<div style=""font-size:60px;"">+</div>",null,fixation,NA,NA,NA,NA
NA,NA,NA,NA,NA,image-keyboard-response,57,205763,0.0-5.0-1.17,73,Study 73,Session 73,NA,null,img/encoding_events/Event_13.jpg,null,NA,NA,NA,NA,NA
NA,NA,NA,NA,NA,html-keyboard-response,58,205765,0.0-5.0-2.17,73,Study 73,Session 73,NA,null,Please press the <strong><u>s</u></strong> key to continue,null,response,s,0,FALSE,NA
NA,NA,NA,NA,NA,html-keyboard-response,59,206266,0.0-5.0-0.18,73,Study 73,Session 73,NA,null,"<div style=""font-size:60px;"">+</div>",null,fixation,NA,NA,NA,NA
NA,NA,NA,NA,NA,image-keyboard-response,60,212278,0.0-5.0-1.18,73,Study 73,Session 73,NA,null,img/encoding_events/Event_8.jpg,null,NA,NA,NA,NA,NA
NA,NA,NA,NA,NA,html-keyboard-response,61,212282,0.0-5.0-2.18,73,Study 73,Session 73,NA,null,Please press the <strong><u>s</u></strong> key to continue,null,response,s,0,FALSE,NA
NA,NA,NA,NA,NA,html-keyboard-response,62,212784,0.0-5.0-0.19,73,Study 73,Session 73,NA,null,"<div style=""font-size:60px;"">+</div>",null,fixation,NA,NA,NA,NA
NA,NA,NA,NA,NA,image-keyboard-response,63,218794,0.0-5.0-1.19,73,Study 73,Session 73,NA,null,img/encoding_events/Event_5.jpg,null,NA,NA,NA,NA,NA
NA,NA,NA,NA,NA,html-keyboard-response,64,224799,0.0-5.0-2.19,73,Study 73,Session 73,NA,null,Please press the <strong><u>k</u></strong> key to continue,null,response,k,6000,FALSE,NA
NA,NA,NA,NA,NA,html-keyboard-response,65,225301,0.0-5.0-0.20,73,Study 73,Session 73,NA,null,"<div style=""font-size:60px;"">+</div>",null,fixation,NA,NA,NA,NA
NA,NA,NA,NA,NA,image-keyboard-response,66,231311,0.0-5.0-1.20,73,Study 73,Session 73,NA,null,img/encoding_events/Event_16.jpg,null,NA,NA,NA,NA,NA
NA,NA,NA,NA,NA,html-keyboard-response,67,231317,0.0-5.0-2.20,73,Study 73,Session 73,NA,null,Please press the <strong><u>s</u></strong> key to continue,null,response,s,0,FALSE,NA
NA,NA,NA,NA,NA,html-keyboard-response,68,231819,0.0-5.0-0.21,73,Study 73,Session 73,NA,null,"<div style=""font-size:60px;"">+</div>",null,fixation,NA,NA,NA,NA
NA,NA,NA,NA,NA,image-keyboard-response,69,237829,0.0-5.0-1.21,73,Study 73,Session 73,NA,null,img/encoding_events/Event_14.jpg,null,NA,NA,NA,NA,NA
NA,NA,NA,NA,NA,html-keyboard-response,70,237835,0.0-5.0-2.21,73,Study 73,Session 73,NA,null,Please press the <strong><u>j</u></strong> key to continue,null,response,j,0,FALSE,NA
NA,NA,NA,NA,NA,html-keyboard-response,71,238337,0.0-5.0-0.22,73,Study 73,Session 73,NA,null,"<div style=""font-size:60px;"">+</div>",null,fixation,NA,NA,NA,NA
NA,NA,NA,NA,NA,image-keyboard-response,72,244347,0.0-5.0-1.22,73,Study 73,Session 73,NA,null,img/encoding_events/Event_11.jpg,null,NA,NA,NA,NA,NA
NA,NA,NA,NA,NA,html-keyboard-response,73,244353,0.0-5.0-2.22,73,Study 73,Session 73,NA,null,Please press the <strong><u>s</u></strong> key to continue,null,response,s,0,FALSE,NA
NA,NA,NA,NA,NA,html-keyboard-response,74,244855,0.0-5.0-0.23,73,Study 73,Session 73,NA,null,"<div style=""font-size:60px;"">+</div>",null,fixation,NA,NA,NA,NA
NA,NA,NA,NA,NA,image-keyboard-response,75,250865,0.0-5.0-1.23,73,Study 73,Session 73,NA,null,img/encoding_events/Event_2.jpg,null,NA,NA,NA,NA,NA
NA,NA,NA,NA,NA,html-keyboard-response,76,254269,0.0-5.0-2.23,73,Study 73,Session 73,NA,3403,Please press the <strong><u>s</u></strong> key to continue,s,response,s,6000,TRUE,NA
NA,NA,NA,NA,NA,instructions,77,318864,0.0-6.0,73,Study 73,Session 73,"[{""page_index"":0,""viewing_time"":17511},{""page_index"":1,""viewing_time"":15285},{""page_index"":2,""viewing_time"":11351},{""page_index"":3,""viewing_time"":10850},{""page_index"":4,""viewing_time"":4517},{""page_index"":5,""viewing_time"":3332},{""page_index"":6,""viewing_time"":1750}]",64596,NA,NA,NA,NA,NA,NA,NA
NA,NA,NA,NA,NA,image-keyboard-response,78,324588,0.0-7.0-0.0-0.0,73,Study 73,Session 73,NA,3212,img/testing_events/Ba/Test_Ba_Event_22.jpg,n,response,n,NA,TRUE,Ba
NA,NA,NA,NA,NA,image-keyboard-response,79,326829,0.0-7.0-0.0-0.1,73,Study 73,Session 73,NA,2233,img/testing_events/Ba/Test_Ba_Event_13.jpg,c,response,c,NA,TRUE,Ba
NA,NA,NA,NA,NA,image-keyboard-response,80,332939,0.0-7.0-0.0-0.2,73,Study 73,Session 73,NA,6101,img/testing_events/Ba/Test_Ba_Event_2.jpg,n,response,n,NA,TRUE,Ba
NA,NA,NA,NA,NA,image-keyboard-response,81,335150,0.0-7.0-0.0-0.3,73,Study 73,Session 73,NA,2203,img/testing_events/Ba/Test_Ba_Event_20.jpg,u,response,u,NA,TRUE,Ba
NA,NA,NA,NA,NA,image-keyboard-response,82,337732,0.0-7.0-0.0-0.4,73,Study 73,Session 73,NA,2573,img/testing_events/Ba/Test_Ba_Event_11.jpg,e,response,e,NA,TRUE,Ba
NA,NA,NA,NA,NA,image-keyboard-response,83,342089,0.0-7.0-0.0-0.5,73,Study 73,Session 73,NA,4348,img/testing_events/Ba/Test_Ba_Event_24.jpg,u,response,u,NA,TRUE,Ba
NA,NA,NA,NA,NA,image-keyboard-response,84,345634,0.0-7.0-0.0-0.6,73,Study 73,Session 73,NA,3536,img/testing_events/Ba/Test_Ba_Event_1.jpg,c,response,c,NA,TRUE,Ba
NA,NA,NA,NA,NA,image-keyboard-response,85,347142,0.0-7.0-0.0-0.7,73,Study 73,Session 73,NA,1500,img/testing_events/Ba/Test_Ba_Event_5.jpg,c,response,c,NA,TRUE,Ba
NA,NA,NA,NA,NA,image-keyboard-response,86,359626,0.0-7.0-0.0-0.8,73,Study 73,Session 73,NA,12476,img/testing_events/Ba/Test_Ba_Event_6.jpg,n,response,n,NA,TRUE,Ba
NA,NA,NA,NA,NA,image-keyboard-response,87,364651,0.0-7.0-0.0-0.9,73,Study 73,Session 73,NA,5017,img/testing_events/Ba/Test_Ba_Event_8.jpg,c,response,u,NA,FALSE,Ba
NA,NA,NA,NA,NA,image-keyboard-response,88,365891,0.0-7.0-0.0-0.10,73,Study 73,Session 73,NA,1234,img/testing_events/Ba/Test_Ba_Event_3.jpg,e,response,e,NA,TRUE,Ba
NA,NA,NA,NA,NA,image-keyboard-response,89,370174,0.0-7.0-0.0-0.11,73,Study 73,Session 73,NA,4275,img/testing_events/Ba/Test_Ba_Event_4.jpg,u,response,u,NA,TRUE,Ba
NA,NA,NA,NA,NA,image-keyboard-response,90,371390,0.0-7.0-0.0-0.12,73,Study 73,Session 73,NA,1208,img/testing_events/Ba/Test_Ba_Event_15.jpg,e,response,e,NA,TRUE,Ba
NA,NA,NA,NA,NA,image-keyboard-response,91,374887,0.0-7.0-0.0-0.13,73,Study 73,Session 73,NA,3488,img/testing_events/Ba/Test_Ba_Event_10.jpg,e,response,n,NA,FALSE,Ba
NA,NA,NA,NA,NA,image-keyboard-response,92,376798,0.0-7.0-0.0-0.14,73,Study 73,Session 73,NA,1903,img/testing_events/Ba/Test_Ba_Event_23.jpg,e,response,e,NA,TRUE,Ba
NA,NA,NA,NA,NA,image-keyboard-response,93,378768,0.0-7.0-0.0-0.15,73,Study 73,Session 73,NA,1962,img/testing_events/Ba/Test_Ba_Event_16.jpg,u,response,u,NA,TRUE,Ba
NA,NA,NA,NA,NA,image-keyboard-response,94,382642,0.0-7.0-0.0-0.16,73,Study 73,Session 73,NA,3865,img/testing_events/Ba/Test_Ba_Event_14.jpg,n,response,n,NA,TRUE,Ba
NA,NA,NA,NA,NA,image-keyboard-response,95,384701,0.0-7.0-0.0-0.17,73,Study 73,Session 73,NA,2051,img/testing_events/Ba/Test_Ba_Event_17.jpg,c,response,c,NA,TRUE,Ba
NA,NA,NA,NA,NA,image-keyboard-response,96,388207,0.0-7.0-0.0-0.18,73,Study 73,Session 73,NA,3498,img/testing_events/Ba/Test_Ba_Event_7.jpg,e,response,e,NA,TRUE,Ba
NA,NA,NA,NA,NA,image-keyboard-response,97,393997,0.0-7.0-0.0-0.19,73,Study 73,Session 73,NA,5782,img/testing_events/Ba/Test_Ba_Event_18.jpg,c,response,n,NA,FALSE,Ba
NA,NA,NA,NA,NA,image-keyboard-response,98,395099,0.0-7.0-0.0-0.20,73,Study 73,Session 73,NA,1094,img/testing_events/Ba/Test_Ba_Event_19.jpg,e,response,e,NA,TRUE,Ba
NA,NA,NA,NA,NA,image-keyboard-response,99,400589,0.0-7.0-0.0-0.21,73,Study 73,Session 73,NA,5484,img/testing_events/Ba/Test_Ba_Event_9.jpg,c,response,c,NA,TRUE,Ba
NA,NA,NA,NA,NA,image-keyboard-response,100,403431,0.0-7.0-0.0-0.22,73,Study 73,Session 73,NA,2834,img/testing_events/Ba/Test_Ba_Event_21.jpg,c,response,c,NA,TRUE,Ba
NA,NA,NA,NA,NA,image-keyboard-response,101,411164,0.0-7.0-0.0-0.23,73,Study 73,Session 73,NA,7725,img/testing_events/Ba/Test_Ba_Event_12.jpg,c,response,u,NA,FALSE,Ba
NA,NA,NA,NA,NA,image-keyboard-response,102,414478,0.0-7.0-1.0-0.0,73,Study 73,Session 73,NA,3304,img/testing_events/Bc/Test_Bc_Event_17.jpg,n,response,n,NA,TRUE,Bc
NA,NA,NA,NA,NA,image-keyboard-response,103,416806,0.0-7.0-1.0-0.1,73,Study 73,Session 73,NA,2319,img/testing_events/Bc/Test_Bc_Event_6.jpg,e,response,e,NA,TRUE,Bc
NA,NA,NA,NA,NA,image-keyboard-response,104,425031,0.0-7.0-1.0-0.2,73,Study 73,Session 73,NA,8219,img/testing_events/Bc/Test_Bc_Event_11.jpg,c,response,u,NA,FALSE,Bc
NA,NA,NA,NA,NA,image-keyboard-response,105,427146,0.0-7.0-1.0-0.3,73,Study 73,Session 73,NA,2106,img/testing_events/Bc/Test_Bc_Event_13.jpg,n,response,n,NA,TRUE,Bc
NA,NA,NA,NA,NA,image-keyboard-response,106,429309,0.0-7.0-1.0-0.4,73,Study 73,Session 73,NA,2157,img/testing_events/Bc/Test_Bc_Event_21.jpg,n,response,n,NA,TRUE,Bc
NA,NA,NA,NA,NA,image-keyboard-response,107,433689,0.0-7.0-1.0-0.5,73,Study 73,Session 73,NA,4371,img/testing_events/Bc/Test_Bc_Event_16.jpg,c,response,c,NA,TRUE,Bc
NA,NA,NA,NA,NA,image-keyboard-response,108,437252,0.0-7.0-1.0-0.6,73,Study 73,Session 73,NA,3555,img/testing_events/Bc/Test_Bc_Event_7.jpg,u,response,u,NA,TRUE,Bc
NA,NA,NA,NA,NA,image-keyboard-response,109,440035,0.0-7.0-1.0-0.7,73,Study 73,Session 73,NA,2779,img/testing_events/Bc/Test_Bc_Event_18.jpg,e,response,e,NA,TRUE,Bc
NA,NA,NA,NA,NA,image-keyboard-response,110,441684,0.0-7.0-1.0-0.8,73,Study 73,Session 73,NA,1642,img/testing_events/Bc/Test_Bc_Event_8.jpg,c,response,c,NA,TRUE,Bc
NA,NA,NA,NA,NA,image-keyboard-response,111,443762,0.0-7.0-1.0-0.9,73,Study 73,Session 73,NA,2069,img/testing_events/Bc/Test_Bc_Event_20.jpg,c,response,c,NA,TRUE,Bc
NA,NA,NA,NA,NA,image-keyboard-response,112,444809,0.0-7.0-1.0-0.10,73,Study 73,Session 73,NA,1038,img/testing_events/Bc/Test_Bc_Event_22.jpg,e,response,e,NA,TRUE,Bc
NA,NA,NA,NA,NA,image-keyboard-response,113,446382,0.0-7.0-1.0-0.11,73,Study 73,Session 73,NA,1566,img/testing_events/Bc/Test_Bc_Event_23.jpg,u,response,u,NA,TRUE,Bc
NA,NA,NA,NA,NA,image-keyboard-response,114,448279,0.0-7.0-1.0-0.12,73,Study 73,Session 73,NA,1893,img/testing_events/Bc/Test_Bc_Event_5.jpg,n,response,n,NA,TRUE,Bc
NA,NA,NA,NA,NA,image-keyboard-response,115,452594,0.0-7.0-1.0-0.13,73,Study 73,Session 73,NA,4308,img/testing_events/Bc/Test_Bc_Event_15.jpg,u,response,u,NA,TRUE,Bc
NA,NA,NA,NA,NA,image-keyboard-response,116,458532,0.0-7.0-1.0-0.14,73,Study 73,Session 73,NA,5933,img/testing_events/Bc/Test_Bc_Event_1.jpg,n,response,n,NA,TRUE,Bc
NA,NA,NA,NA,NA,image-keyboard-response,117,461065,0.0-7.0-1.0-0.15,73,Study 73,Session 73,NA,2525,img/testing_events/Bc/Test_Bc_Event_19.jpg,u,response,u,NA,TRUE,Bc
NA,NA,NA,NA,NA,image-keyboard-response,118,464182,0.0-7.0-1.0-0.16,73,Study 73,Session 73,NA,3109,img/testing_events/Bc/Test_Bc_Event_10.jpg,u,response,e,NA,FALSE,Bc
NA,NA,NA,NA,NA,image-keyboard-response,119,467451,0.0-7.0-1.0-0.17,73,Study 73,Session 73,NA,3260,img/testing_events/Bc/Test_Bc_Event_2.jpg,e,response,e,NA,TRUE,Bc
NA,NA,NA,NA,NA,image-keyboard-response,120,469819,0.0-7.0-1.0-0.18,73,Study 73,Session 73,NA,2363,img/testing_events/Bc/Test_Bc_Event_24.jpg,c,response,c,NA,TRUE,Bc
NA,NA,NA,NA,NA,image-keyboard-response,121,474336,0.0-7.0-1.0-0.19,73,Study 73,Session 73,NA,4510,img/testing_events/Bc/Test_Bc_Event_4.jpg,c,response,c,NA,TRUE,Bc
NA,NA,NA,NA,NA,image-keyboard-response,122,476517,0.0-7.0-1.0-0.20,73,Study 73,Session 73,NA,2173,img/testing_events/Bc/Test_Bc_Event_12.jpg,u,response,c,NA,FALSE,Bc
NA,NA,NA,NA,NA,image-keyboard-response,123,479298,0.0-7.0-1.0-0.21,73,Study 73,Session 73,NA,2772,img/testing_events/Bc/Test_Bc_Event_14.jpg,e,response,e,NA,TRUE,Bc
NA,NA,NA,NA,NA,image-keyboard-response,124,500179,0.0-7.0-1.0-0.22,73,Study 73,Session 73,NA,20874,img/testing_events/Bc/Test_Bc_Event_3.jpg,u,response,u,NA,TRUE,Bc
NA,NA,NA,NA,NA,image-keyboard-response,125,506178,0.0-7.0-1.0-0.23,73,Study 73,Session 73,NA,5991,img/testing_events/Bc/Test_Bc_Event_9.jpg,n,response,n,NA,TRUE,Bc
NA,NA,NA,NA,NA,image-keyboard-response,126,508799,0.0-7.0-2.0-0.0,73,Study 73,Session 73,NA,2612,img/testing_events/Ab/Test_Ab_Event_3.jpg,c,response,c,NA,TRUE,Ab
NA,NA,NA,NA,NA,image-keyboard-response,127,513315,0.0-7.0-2.0-0.1,73,Study 73,Session 73,NA,4508,img/testing_events/Ab/Test_Ab_Event_4.jpg,n,response,n,NA,TRUE,Ab
NA,NA,NA,NA,NA,image-keyboard-response,128,516181,0.0-7.0-2.0-0.2,73,Study 73,Session 73,NA,2858,img/testing_events/Ab/Test_Ab_Event_2.jpg,u,response,u,NA,TRUE,Ab
NA,NA,NA,NA,NA,image-keyboard-response,129,521607,0.0-7.0-2.0-0.3,73,Study 73,Session 73,NA,5418,img/testing_events/Ab/Test_Ab_Event_18.jpg,u,response,u,NA,TRUE,Ab
NA,NA,NA,NA,NA,image-keyboard-response,130,523331,0.0-7.0-2.0-0.4,73,Study 73,Session 73,NA,1717,img/testing_events/Ab/Test_Ab_Event_5.jpg,e,response,e,NA,TRUE,Ab
NA,NA,NA,NA,NA,image-keyboard-response,131,524594,0.0-7.0-2.0-0.5,73,Study 73,Session 73,NA,1258,img/testing_events/Ab/Test_Ab_Event_23.jpg,c,response,c,NA,TRUE,Ab
NA,NA,NA,NA,NA,image-keyboard-response,132,527002,0.0-7.0-2.0-0.6,73,Study 73,Session 73,NA,2397,img/testing_events/Ab/Test_Ab_Event_20.jpg,e,response,n,NA,FALSE,Ab
NA,NA,NA,NA,NA,image-keyboard-response,133,529001,0.0-7.0-2.0-0.7,73,Study 73,Session 73,NA,1991,img/testing_events/Ab/Test_Ab_Event_7.jpg,c,response,c,NA,TRUE,Ab
NA,NA,NA,NA,NA,image-keyboard-response,134,531633,0.0-7.0-2.0-0.8,73,Study 73,Session 73,NA,2625,img/testing_events/Ab/Test_Ab_Event_9.jpg,n,response,e,NA,FALSE,Ab
NA,NA,NA,NA,NA,image-keyboard-response,135,535262,0.0-7.0-2.0-0.9,73,Study 73,Session 73,NA,3622,img/testing_events/Ab/Test_Ab_Event_22.jpg,u,response,u,NA,TRUE,Ab
NA,NA,NA,NA,NA,image-keyboard-response,136,538410,0.0-7.0-2.0-0.10,73,Study 73,Session 73,NA,3141,img/testing_events/Ab/Test_Ab_Event_12.jpg,n,response,n,NA,TRUE,Ab
NA,NA,NA,NA,NA,image-keyboard-response,137,542902,0.0-7.0-2.0-0.11,73,Study 73,Session 73,NA,4484,img/testing_events/Ab/Test_Ab_Event_14.jpg,u,response,u,NA,TRUE,Ab
NA,NA,NA,NA,NA,image-keyboard-response,138,544074,0.0-7.0-2.0-0.12,73,Study 73,Session 73,NA,1161,img/testing_events/Ab/Test_Ab_Event_15.jpg,c,response,c,NA,TRUE,Ab
NA,NA,NA,NA,NA,image-keyboard-response,139,545071,0.0-7.0-2.0-0.13,73,Study 73,Session 73,NA,990,img/testing_events/Ab/Test_Ab_Event_13.jpg,e,response,e,NA,TRUE,Ab
NA,NA,NA,NA,NA,image-keyboard-response,140,549271,0.0-7.0-2.0-0.14,73,Study 73,Session 73,NA,4191,img/testing_events/Ab/Test_Ab_Event_1.jpg,e,response,e,NA,TRUE,Ab
NA,NA,NA,NA,NA,image-keyboard-response,141,550992,0.0-7.0-2.0-0.15,73,Study 73,Session 73,NA,1713,img/testing_events/Ab/Test_Ab_Event_21.jpg,e,response,e,NA,TRUE,Ab
NA,NA,NA,NA,NA,image-keyboard-response,142,552791,0.0-7.0-2.0-0.16,73,Study 73,Session 73,NA,1790,img/testing_events/Ab/Test_Ab_Event_24.jpg,n,response,n,NA,TRUE,Ab
NA,NA,NA,NA,NA,image-keyboard-response,143,554562,0.0-7.0-2.0-0.17,73,Study 73,Session 73,NA,1763,img/testing_events/Ab/Test_Ab_Event_16.jpg,n,response,n,NA,TRUE,Ab
NA,NA,NA,NA,NA,image-keyboard-response,144,556611,0.0-7.0-2.0-0.18,73,Study 73,Session 73,NA,2041,img/testing_events/Ab/Test_Ab_Event_11.jpg,c,response,c,NA,TRUE,Ab
NA,NA,NA,NA,NA,image-keyboard-response,145,558906,0.0-7.0-2.0-0.19,73,Study 73,Session 73,NA,2287,img/testing_events/Ab/Test_Ab_Event_6.jpg,u,response,u,NA,TRUE,Ab
NA,NA,NA,NA,NA,image-keyboard-response,146,564768,0.0-7.0-2.0-0.20,73,Study 73,Session 73,NA,5855,img/testing_events/Ab/Test_Ab_Event_10.jpg,u,response,u,NA,TRUE,Ab
NA,NA,NA,NA,NA,image-keyboard-response,147,565842,0.0-7.0-2.0-0.21,73,Study 73,Session 73,NA,1067,img/testing_events/Ab/Test_Ab_Event_19.jpg,c,response,c,NA,TRUE,Ab
NA,NA,NA,NA,NA,image-keyboard-response,148,566726,0.0-7.0-2.0-0.22,73,Study 73,Session 73,NA,877,img/testing_events/Ab/Test_Ab_Event_17.jpg,e,response,e,NA,TRUE,Ab
NA,NA,NA,NA,NA,image-keyboard-response,149,571107,0.0-7.0-2.0-0.23,73,Study 73,Session 73,NA,4372,img/testing_events/Ab/Test_Ab_Event_8.jpg,n,response,n,NA,TRUE,Ab
NA,NA,NA,NA,NA,image-keyboard-response,150,575079,0.0-7.0-3.0-0.0,73,Study 73,Session 73,NA,3965,img/testing_events/Ac/Test_Ac_Event_1.jpg,c,response,u,NA,FALSE,Ac
NA,NA,NA,NA,NA,image-keyboard-response,151,581916,0.0-7.0-3.0-0.1,73,Study 73,Session 73,NA,6833,img/testing_events/Ac/Test_Ac_Event_21.jpg,e,response,u,NA,FALSE,Ac
NA,NA,NA,NA,NA,image-keyboard-response,152,585106,0.0-7.0-3.0-0.2,73,Study 73,Session 73,NA,3182,img/testing_events/Ac/Test_Ac_Event_12.jpg,e,response,e,NA,TRUE,Ac
NA,NA,NA,NA,NA,image-keyboard-response,153,590902,0.0-7.0-3.0-0.3,73,Study 73,Session 73,NA,5788,img/testing_events/Ac/Test_Ac_Event_2.jpg,n,response,c,NA,FALSE,Ac
NA,NA,NA,NA,NA,image-keyboard-response,154,596020,0.0-7.0-3.0-0.4,73,Study 73,Session 73,NA,5112,img/testing_events/Ac/Test_Ac_Event_10.jpg,n,response,c,NA,FALSE,Ac
NA,NA,NA,NA,NA,image-keyboard-response,155,600264,0.0-7.0-3.0-0.5,73,Study 73,Session 73,NA,4236,img/testing_events/Ac/Test_Ac_Event_14.jpg,c,response,c,NA,TRUE,Ac
NA,NA,NA,NA,NA,image-keyboard-response,156,602473,0.0-7.0-3.0-0.6,73,Study 73,Session 73,NA,2201,img/testing_events/Ac/Test_Ac_Event_20.jpg,c,response,e,NA,FALSE,Ac
NA,NA,NA,NA,NA,image-keyboard-response,157,607147,0.0-7.0-3.0-0.7,73,Study 73,Session 73,NA,4665,img/testing_events/Ac/Test_Ac_Event_3.jpg,n,response,n,NA,TRUE,Ac
NA,NA,NA,NA,NA,image-keyboard-response,158,608902,0.0-7.0-3.0-0.8,73,Study 73,Session 73,NA,1748,img/testing_events/Ac/Test_Ac_Event_22.jpg,c,response,c,NA,TRUE,Ac
NA,NA,NA,NA,NA,image-keyboard-response,159,612359,0.0-7.0-3.0-0.9,73,Study 73,Session 73,NA,3447,img/testing_events/Ac/Test_Ac_Event_9.jpg,c,response,u,NA,FALSE,Ac
NA,NA,NA,NA,NA,image-keyboard-response,160,617547,0.0-7.0-3.0-0.10,73,Study 73,Session 73,NA,5181,img/testing_events/Ac/Test_Ac_Event_18.jpg,u,response,c,NA,FALSE,Ac
NA,NA,NA,NA,NA,image-keyboard-response,161,619086,0.0-7.0-3.0-0.11,73,Study 73,Session 73,NA,1533,img/testing_events/Ac/Test_Ac_Event_19.jpg,n,response,n,NA,TRUE,Ac
NA,NA,NA,NA,NA,image-keyboard-response,162,620700,0.0-7.0-3.0-0.12,73,Study 73,Session 73,NA,1606,img/testing_events/Ac/Test_Ac_Event_15.jpg,n,response,n,NA,TRUE,Ac
NA,NA,NA,NA,NA,image-keyboard-response,163,625049,0.0-7.0-3.0-0.13,73,Study 73,Session 73,NA,4342,img/testing_events/Ac/Test_Ac_Event_24.jpg,n,response,e,NA,FALSE,Ac
NA,NA,NA,NA,NA,image-keyboard-response,164,628000,0.0-7.0-3.0-0.14,73,Study 73,Session 73,NA,2944,img/testing_events/Ac/Test_Ac_Event_23.jpg,n,response,n,NA,TRUE,Ac
NA,NA,NA,NA,NA,image-keyboard-response,165,631511,0.0-7.0-3.0-0.15,73,Study 73,Session 73,NA,3504,img/testing_events/Ac/Test_Ac_Event_8.jpg,e,response,e,NA,TRUE,Ac
NA,NA,NA,NA,NA,image-keyboard-response,166,635278,0.0-7.0-3.0-0.16,73,Study 73,Session 73,NA,3760,img/testing_events/Ac/Test_Ac_Event_11.jpg,e,response,n,NA,FALSE,Ac
NA,NA,NA,NA,NA,image-keyboard-response,167,637400,0.0-7.0-3.0-0.17,73,Study 73,Session 73,NA,2114,img/testing_events/Ac/Test_Ac_Event_13.jpg,u,response,u,NA,TRUE,Ac
NA,NA,NA,NA,NA,image-keyboard-response,168,639126,0.0-7.0-3.0-0.18,73,Study 73,Session 73,NA,1717,img/testing_events/Ac/Test_Ac_Event_17.jpg,u,response,u,NA,TRUE,Ac
NA,NA,NA,NA,NA,image-keyboard-response,169,641043,0.0-7.0-3.0-0.19,73,Study 73,Session 73,NA,1910,img/testing_events/Ac/Test_Ac_Event_6.jpg,c,response,c,NA,TRUE,Ac
NA,NA,NA,NA,NA,image-keyboard-response,170,642269,0.0-7.0-3.0-0.20,73,Study 73,Session 73,NA,1219,img/testing_events/Ac/Test_Ac_Event_5.jpg,u,response,u,NA,TRUE,Ac
NA,NA,NA,NA,NA,image-keyboard-response,171,645730,0.0-7.0-3.0-0.21,73,Study 73,Session 73,NA,3451,img/testing_events/Ac/Test_Ac_Event_4.jpg,n,response,e,NA,FALSE,Ac
NA,NA,NA,NA,NA,image-keyboard-response,172,647230,0.0-7.0-3.0-0.22,73,Study 73,Session 73,NA,1490,img/testing_events/Ac/Test_Ac_Event_16.jpg,e,response,e,NA,TRUE,Ac
NA,NA,NA,NA,NA,image-keyboard-response,173,649417,0.0-7.0-3.0-0.23,73,Study 73,Session 73,NA,2178,img/testing_events/Ac/Test_Ac_Event_7.jpg,n,response,n,NA,TRUE,Ac
NA,NA,NA,NA,NA,image-keyboard-response,174,650640,0.0-7.0-4.0-0.0,73,Study 73,Session 73,NA,1215,img/testing_events/Cb/Test_Cb_Event_13.jpg,u,response,u,NA,TRUE,Cb
NA,NA,NA,NA,NA,image-keyboard-response,175,651913,0.0-7.0-4.0-0.1,73,Study 73,Session 73,NA,1265,img/testing_events/Cb/Test_Cb_Event_21.jpg,u,response,u,NA,TRUE,Cb
NA,NA,NA,NA,NA,image-keyboard-response,176,653699,0.0-7.0-4.0-0.2,73,Study 73,Session 73,NA,1778,img/testing_events/Cb/Test_Cb_Event_3.jpg,n,response,n,NA,TRUE,Cb
NA,NA,NA,NA,NA,image-keyboard-response,177,655916,0.0-7.0-4.0-0.3,73,Study 73,Session 73,NA,2210,img/testing_events/Cb/Test_Cb_Event_9.jpg,c,response,u,NA,FALSE,Cb
NA,NA,NA,NA,NA,image-keyboard-response,178,656999,0.0-7.0-4.0-0.4,73,Study 73,Session 73,NA,1075,img/testing_events/Cb/Test_Cb_Event_2.jpg,c,response,c,NA,TRUE,Cb
NA,NA,NA,NA,NA,image-keyboard-response,179,658611,0.0-7.0-4.0-0.5,73,Study 73,Session 73,NA,1602,img/testing_events/Cb/Test_Cb_Event_20.jpg,e,response,e,NA,TRUE,Cb
NA,NA,NA,NA,NA,image-keyboard-response,180,663084,0.0-7.0-4.0-0.6,73,Study 73,Session 73,NA,4464,img/testing_events/Cb/Test_Cb_Event_4.jpg,c,response,e,NA,FALSE,Cb
NA,NA,NA,NA,NA,image-keyboard-response,181,664255,0.0-7.0-4.0-0.7,73,Study 73,Session 73,NA,1163,img/testing_events/Cb/Test_Cb_Event_15.jpg,c,response,n,NA,FALSE,Cb
NA,NA,NA,NA,NA,image-keyboard-response,182,665496,0.0-7.0-4.0-0.8,73,Study 73,Session 73,NA,1231,img/testing_events/Cb/Test_Cb_Event_17.jpg,u,response,u,NA,TRUE,Cb
NA,NA,NA,NA,NA,image-keyboard-response,183,668208,0.0-7.0-4.0-0.9,73,Study 73,Session 73,NA,2704,img/testing_events/Cb/Test_Cb_Event_7.jpg,n,response,n,NA,TRUE,Cb
NA,NA,NA,NA,NA,image-keyboard-response,184,670186,0.0-7.0-4.0-0.10,73,Study 73,Session 73,NA,1972,img/testing_events/Cb/Test_Cb_Event_10.jpg,c,response,c,NA,TRUE,Cb
NA,NA,NA,NA,NA,image-keyboard-response,185,671298,0.0-7.0-4.0-0.11,73,Study 73,Session 73,NA,1107,img/testing_events/Cb/Test_Cb_Event_23.jpg,n,response,n,NA,TRUE,Cb
NA,NA,NA,NA,NA,image-keyboard-response,186,672650,0.0-7.0-4.0-0.12,73,Study 73,Session 73,NA,1343,img/testing_events/Cb/Test_Cb_Event_12.jpg,e,response,e,NA,TRUE,Cb
NA,NA,NA,NA,NA,image-keyboard-response,187,677815,0.0-7.0-4.0-0.13,73,Study 73,Session 73,NA,5160,img/testing_events/Cb/Test_Cb_Event_24.jpg,e,response,e,NA,TRUE,Cb
NA,NA,NA,NA,NA,image-keyboard-response,188,680546,0.0-7.0-4.0-0.14,73,Study 73,Session 73,NA,2725,img/testing_events/Cb/Test_Cb_Event_18.jpg,c,response,c,NA,TRUE,Cb
NA,NA,NA,NA,NA,image-keyboard-response,189,683185,0.0-7.0-4.0-0.15,73,Study 73,Session 73,NA,2632,img/testing_events/Cb/Test_Cb_Event_1.jpg,e,response,u,NA,FALSE,Cb
NA,NA,NA,NA,NA,image-keyboard-response,190,685999,0.0-7.0-4.0-0.16,73,Study 73,Session 73,NA,2807,img/testing_events/Cb/Test_Cb_Event_14.jpg,c,response,c,NA,TRUE,Cb
NA,NA,NA,NA,NA,image-keyboard-response,191,689171,0.0-7.0-4.0-0.17,73,Study 73,Session 73,NA,3162,img/testing_events/Cb/Test_Cb_Event_8.jpg,e,response,e,NA,TRUE,Cb
NA,NA,NA,NA,NA,image-keyboard-response,192,691057,0.0-7.0-4.0-0.18,73,Study 73,Session 73,NA,1878,img/testing_events/Cb/Test_Cb_Event_5.jpg,u,response,u,NA,TRUE,Cb
NA,NA,NA,NA,NA,image-keyboard-response,193,692391,0.0-7.0-4.0-0.19,73,Study 73,Session 73,NA,1326,img/testing_events/Cb/Test_Cb_Event_22.jpg,c,response,c,NA,TRUE,Cb
NA,NA,NA,NA,NA,image-keyboard-response,194,695699,0.0-7.0-4.0-0.20,73,Study 73,Session 73,NA,3300,img/testing_events/Cb/Test_Cb_Event_19.jpg,n,response,n,NA,TRUE,Cb
NA,NA,NA,NA,NA,image-keyboard-response,195,701417,0.0-7.0-4.0-0.21,73,Study 73,Session 73,NA,5711,img/testing_events/Cb/Test_Cb_Event_16.jpg,e,response,e,NA,TRUE,Cb
NA,NA,NA,NA,NA,image-keyboard-response,196,704353,0.0-7.0-4.0-0.22,73,Study 73,Session 73,NA,2929,img/testing_events/Cb/Test_Cb_Event_6.jpg,c,response,c,NA,TRUE,Cb
NA,NA,NA,NA,NA,image-keyboard-response,197,709426,0.0-7.0-4.0-0.23,73,Study 73,Session 73,NA,5065,img/testing_events/Cb/Test_Cb_Event_11.jpg,n,response,n,NA,TRUE,Cb
NA,NA,NA,NA,NA,image-keyboard-response,198,711885,0.0-7.0-5.0-0.0,73,Study 73,Session 73,NA,2452,img/testing_events/Ca/Test_Ca_Event_7.jpg,c,response,c,NA,TRUE,Ca
NA,NA,NA,NA,NA,image-keyboard-response,199,717695,0.0-7.0-5.0-0.1,73,Study 73,Session 73,NA,5803,img/testing_events/Ca/Test_Ca_Event_14.jpg,u,response,u,NA,TRUE,Ca
NA,NA,NA,NA,NA,image-keyboard-response,200,718954,0.0-7.0-5.0-0.2,73,Study 73,Session 73,NA,1249,img/testing_events/Ca/Test_Ca_Event_5.jpg,e,response,e,NA,TRUE,Ca
NA,NA,NA,NA,NA,image-keyboard-response,201,724115,0.0-7.0-5.0-0.3,73,Study 73,Session 73,NA,5156,img/testing_events/Ca/Test_Ca_Event_11.jpg,n,response,c,NA,FALSE,Ca
NA,NA,NA,NA,NA,image-keyboard-response,202,728746,0.0-7.0-5.0-0.4,73,Study 73,Session 73,NA,4622,img/testing_events/Ca/Test_Ca_Event_4.jpg,n,response,n,NA,TRUE,Ca
NA,NA,NA,NA,NA,image-keyboard-response,203,731825,0.0-7.0-5.0-0.5,73,Study 73,Session 73,NA,3071,img/testing_events/Ca/Test_Ca_Event_6.jpg,u,response,u,NA,TRUE,Ca
NA,NA,NA,NA,NA,image-keyboard-response,204,733334,0.0-7.0-5.0-0.6,73,Study 73,Session 73,NA,1502,img/testing_events/Ca/Test_Ca_Event_16.jpg,n,response,n,NA,TRUE,Ca
NA,NA,NA,NA,NA,image-keyboard-response,205,734783,0.0-7.0-5.0-0.7,73,Study 73,Session 73,NA,1442,img/testing_events/Ca/Test_Ca_Event_19.jpg,c,response,c,NA,TRUE,Ca
NA,NA,NA,NA,NA,image-keyboard-response,206,738247,0.0-7.0-5.0-0.8,73,Study 73,Session 73,NA,3457,img/testing_events/Ca/Test_Ca_Event_18.jpg,n,response,u,NA,FALSE,Ca
NA,NA,NA,NA,NA,image-keyboard-response,207,741540,0.0-7.0-5.0-0.9,73,Study 73,Session 73,NA,3286,img/testing_events/Ca/Test_Ca_Event_10.jpg,u,response,u,NA,TRUE,Ca
NA,NA,NA,NA,NA,image-keyboard-response,208,742823,0.0-7.0-5.0-0.10,73,Study 73,Session 73,NA,1276,img/testing_events/Ca/Test_Ca_Event_21.jpg,e,response,e,NA,TRUE,Ca
NA,NA,NA,NA,NA,image-keyboard-response,209,743760,0.0-7.0-5.0-0.11,73,Study 73,Session 73,NA,927,img/testing_events/Ca/Test_Ca_Event_13.jpg,e,response,e,NA,TRUE,Ca
NA,NA,NA,NA,NA,image-keyboard-response,210,744905,0.0-7.0-5.0-0.12,73,Study 73,Session 73,NA,1138,img/testing_events/Ca/Test_Ca_Event_23.jpg,c,response,c,NA,TRUE,Ca
NA,NA,NA,NA,NA,image-keyboard-response,211,751625,0.0-7.0-5.0-0.13,73,Study 73,Session 73,NA,6712,img/testing_events/Ca/Test_Ca_Event_24.jpg,n,response,n,NA,TRUE,Ca
NA,NA,NA,NA,NA,image-keyboard-response,212,756596,0.0-7.0-5.0-0.14,73,Study 73,Session 73,NA,4964,img/testing_events/Ca/Test_Ca_Event_3.jpg,c,response,c,NA,TRUE,Ca
NA,NA,NA,NA,NA,image-keyboard-response,213,757557,0.0-7.0-5.0-0.15,73,Study 73,Session 73,NA,954,img/testing_events/Ca/Test_Ca_Event_17.jpg,e,response,e,NA,TRUE,Ca
NA,NA,NA,NA,NA,image-keyboard-response,214,758755,0.0-7.0-5.0-0.16,73,Study 73,Session 73,NA,1191,img/testing_events/Ca/Test_Ca_Event_22.jpg,c,response,u,NA,FALSE,Ca
NA,NA,NA,NA,NA,image-keyboard-response,215,766606,0.0-7.0-5.0-0.17,73,Study 73,Session 73,NA,7844,img/testing_events/Ca/Test_Ca_Event_15.jpg,c,response,c,NA,TRUE,Ca
NA,NA,NA,NA,NA,image-keyboard-response,216,768770,0.0-7.0-5.0-0.18,73,Study 73,Session 73,NA,2157,img/testing_events/Ca/Test_Ca_Event_20.jpg,n,response,n,NA,TRUE,Ca
NA,NA,NA,NA,NA,image-keyboard-response,217,773072,0.0-7.0-5.0-0.19,73,Study 73,Session 73,NA,4294,img/testing_events/Ca/Test_Ca_Event_2.jpg,u,response,u,NA,TRUE,Ca
NA,NA,NA,NA,NA,image-keyboard-response,218,774659,0.0-7.0-5.0-0.20,73,Study 73,Session 73,NA,1579,img/testing_events/Ca/Test_Ca_Event_8.jpg,n,response,n,NA,TRUE,Ca
NA,NA,NA,NA,NA,image-keyboard-response,219,778683,0.0-7.0-5.0-0.21,73,Study 73,Session 73,NA,4016,img/testing_events/Ca/Test_Ca_Event_1.jpg,u,response,e,NA,FALSE,Ca
NA,NA,NA,NA,NA,image-keyboard-response,220,784816,0.0-7.0-5.0-0.22,73,Study 73,Session 73,NA,6125,img/testing_events/Ca/Test_Ca_Event_9.jpg,n,response,e,NA,FALSE,Ca
NA,NA,NA,NA,NA,image-keyboard-response,221,789211,0.0-7.0-5.0-0.23,73,Study 73,Session 73,NA,4387,img/testing_events/Ca/Test_Ca_Event_12.jpg,n,response,n,NA,TRUE,Ca
NA,NA,NA,NA,NA,survey-text,222,798188,0.0-8.0,73,Study 73,Session 73,NA,8973,NA,"{""Q0"":""No"",""Q1"":""No"",""Q2"":""No""}",NA,NA,NA,NA,NA
NA,NA,NA,NA,NA,survey-html-form,223,820568,0.0-9.0,73,Study 73,Session 73,NA,22380,NA,"{""Gender"":""Female"",""Age"":""31"",""ColorBlind"":""No"",""Education"":""Graduate degree (Masters, Doctorate, etc.)"",""Income"":""$75,000-$99,999"",""Race"":""Asian/Pacific Islander"",""Fluent"":""Yes"",""AgeEnglish"":""0"",""Country"":""USA""}",NA,NA,NA,NA,NA
TRUE,NA,NA,NA,NA,fullscreen,224,820568,0.0-10.0,73,Study 73,Session 73,NA,NA,NA,NA,NA,NA,NA,NA,NA
