success,timeout,failed_images,failed_audio,failed_video,trial_type,trial_index,time_elapsed,internal_node_id,subject_id,study_id,session_id,view_history,rt,stimulus,response,task,correct_response,attention_duration,correct,retrieval_group
TRUE,FALSE,[],[],[],preload,0,5288,0.0-0.0,9,Study 9,Session 9,NA,NA,NA,NA,NA,NA,NA,NA,NA
TRUE,NA,NA,NA,NA,fullscreen,1,11293,0.0-1.0,9,Study 9,Session 9,NA,NA,NA,NA,NA,NA,NA,NA,NA
NA,NA,NA,NA,NA,instructions,2,51081,0.0-2.0,9,Study 9,Session 9,"[{""page_index"":0,""viewing_time"":39787}]",39787,NA,NA,NA,NA,NA,NA,NA
NA,NA,NA,NA,NA,html-keyboard-response,3,87213,0.0-3.0,9,Study 9,Session 9,NA,36129,"Welcome to the experiment. <br /><br />This experiment will take about 20 minutes. Please complete all in one sitting. <br /><br />For this study, <strong>please use</strong> a laptop or desktop computer (not a mobile phone or tablet). Also, please use either <u>Chrome or Firefox</u>. <br /><br />Once you begin, <strong>DO NOT</strong> refresh the browser, as the experiment will reset and you will lose your progress. <br /><br />Press the <strong class=""upperline"">B</strong> key on your keyboard to begin.",b,NA,NA,NA,NA,NA
NA,NA,NA,NA,NA,instructions,4,185955,0.0-4.0,9,Study 9,Session 9,"[{""page_index"":0,""viewing_time"":20498},{""page_index"":1,""viewing_time"":74166},{""page_index"":2,""viewing_time"":3074}]",97738,NA,NA,NA,NA,NA,NA,NA
NA,NA,NA,NA,NA,html-keyboard-response,5,188964,0.0-5.0-0.0,9,Study 9,Session 9,NA,null,"<div style=""font-size:60px;"">+</div>",null,fixation,NA,NA,NA,NA
NA,NA,NA,NA,NA,image-keyboard-response,6,194998,0.0-5.0-1.0,9,Study 9,Session 9,NA,null,img/encoding_events/Event_6.jpg,null,NA,NA,NA,NA,NA
NA,NA,NA,NA,NA,html-keyboard-response,7,195000,0.0-5.0-2.0,9,Study 9,Session 9,NA,null,Please press the <strong><u>d</u></strong> key to continue,null,response,d,0,FALSE,NA
NA,NA,NA,NA,NA,html-keyboard-response,8,195503,0.0-5.0-0.1,9,Study 9,Session 9,NA,null,"<div style=""font-size:60px;"">+</div>",null,fixation,NA,NA,NA,NA
NA,NA,NA,NA,NA,image-keyboard-response,9,201511,0.0-5.0-1.1,9,Study 9,Session 9,NA,null,img/encoding_events/Event_3.jpg,null,NA,NA,NA,NA,NA
NA,NA,NA,NA,NA,html-keyboard-response,10,201517,0.0-5.0-2.1,9,Study 9,Session 9,NA,null,Please press the <strong><u>s</u></strong> key to continue,null,response,s,0,FALSE,NA
NA,NA,NA,NA,NA,html-keyboard-response,11,202018,0.0-5.0-0.2,9,Study 9,Session 9,NA,null,"<div style=""font-size:60px;"">+</div>",null,fixation,NA,NA,NA,NA
NA,NA,NA,NA,NA,image-keyboard-response,12,208029,0.0-5.0-1.2,9,Study 9,Session 9,NA,null,img/encoding_events/Event_5.jpg,null,NA,NA,NA,NA,NA
NA,NA,NA,NA,NA,html-keyboard-response,13,208035,0.0-5.0-2.2,9,Study 9,Session 9,NA,null,Please press the <strong><u>a</u></strong> key to continue,null,response,a,0,FALSE,NA
NA,NA,NA,NA,NA,html-keyboard-response,14,208536,0.0-5.0-0.3,9,Study 9,Session 9,NA,null,"<div style=""font-size:60px;"">+</div>",null,fixation,NA,NA,NA,NA
NA,NA,NA,NA,NA,image-keyboard-response,15,214543,0.0-5.0-1.3,9,Study 9,Session 9,NA,null,img/encoding_events/Event_16.jpg,null,NA,NA,NA,NA,NA
NA,NA,NA,NA,NA,html-keyboard-response,16,220378,0.0-5.0-2.3,9,Study 9,Session 9,NA,5834,Please press the <strong><u>f</u></strong> key to continue,f,response,f,6000,TRUE,NA
NA,NA,NA,NA,NA,html-keyboard-response,17,220881,0.0-5.0-0.4,9,Study 9,Session 9,NA,null,"<div style=""font-size:60px;"">+</div>",null,fixation,NA,NA,NA,NA
NA,NA,NA,NA,NA,image-keyboard-response,18,226893,0.0-5.0-1.4,9,Study 9,Session 9,NA,null,img/encoding_events/Event_1.jpg,null,NA,NA,NA,NA,NA
NA,NA,NA,NA,NA,html-keyboard-response,19,226894,0.0-5.0-2.4,9,Study 9,Session 9,NA,null,Please press the <strong><u>d</u></strong> key to continue,null,response,d,0,FALSE,NA
NA,NA,NA,NA,NA,html-keyboard-response,20,227396,0.0-5.0-0.5,9,Study 9,Session 9,NA,null,"<div style=""font-size:60px;"">+</div>",null,fixation,NA,NA,NA,NA
NA,NA,NA,NA,NA,image-keyboard-response,21,233408,0.0-5.0-1.5,9,Study 9,Session 9,NA,null,img/encoding_events/Event_15.jpg,null,NA,NA,NA,NA,NA
NA,NA,NA,NA,NA,html-keyboard-response,22,233414,0.0-5.0-2.5,9,Study 9,Session 9,NA,null,Please press the <strong><u>a</u></strong> key to continue,null,response,a,0,FALSE,NA
NA,NA,NA,NA,NA,html-keyboard-response,23,233914,0.0-5.0-0.6,9,Study 9,Session 9,NA,null,"<div style=""font-size:60px;"">+</div>",null,fixation,NA,NA,NA,NA
NA,NA,NA,NA,NA,image-keyboard-response,24,239928,0.0-5.0-1.6,9,Study 9,Session 9,NA,null,img/encoding_events/Event_9.jpg,null,NA,NA,NA,NA,NA
NA,NA,NA,NA,NA,html-keyboard-response,25,239934,0.0-5.0-2.6,9,Study 9,Session 9,NA,null,Please press the <strong><u>d</u></strong> key to continue,null,response,d,0,FALSE,NA
NA,NA,NA,NA,NA,html-keyboard-response,26,240439,0.0-5.0-0.7,9,Study 9,Session 9,NA,null,"<div style=""font-size:60px;"">+</div>",null,fixation,NA,NA,NA,NA
NA,NA,NA,NA,NA,image-keyboard-response,27,246447,0.0-5.0-1.7,9,Study 9,Session 9,NA,null,img/encoding_events/Event_7.jpg,null,NA,NA,NA,NA,NA
NA,NA,NA,NA,NA,html-keyboard-response,28,249374,0.0-5.0-2.7,9,Study 9,Session 9,NA,2927,Please press the <strong><u>d</u></strong> key to continue,d,response,d,6000,TRUE,NA
NA,NA,NA,NA,NA,html-keyboard-response,29,249877,0.0-5.0-0.8,9,Study 9,Session 9,NA,null,"<div style=""font-size:60px;"">+</div>",null,fixation,NA,NA,NA,NA
NA,NA,NA,NA,NA,image-keyboard-response,30,255888,0.0-5.0-1.8,9,Study 9,Session 9,NA,null,img/encoding_events/Event_14.jpg,null,NA,NA,NA,NA,NA
NA,NA,NA,NA,NA,html-keyboard-response,31,255890,0.0-5.0-2.8,9,Study 9,Session 9,NA,null,Please press the <strong><u>j</u></strong> key to continue,null,response,j,0,FALSE,NA
NA,NA,NA,NA,NA,html-keyboard-response,32,256391,0.0-5.0-0.9,9,Study 9,Session 9,NA,null,"<div style=""font-size:60px;"">+</div>",null,fixation,NA,NA,NA,NA
NA,NA,NA,NA,NA,image-keyboard-response,33,262403,0.0-5.0-1.9,9,Study 9,Session 9,NA,null,img/encoding_events/Event_13.jpg,null,NA,NA,NA,NA,NA
NA,NA,NA,NA,NA,html-keyboard-response,34,262409,0.0-5.0-2.9,9,Study 9,Session 9,NA,null,Please press the <strong><u>k</u></strong> key to continue,null,response,k,0,FALSE,NA
NA,NA,NA,NA,NA,html-keyboard-response,35,262913,0.0-5.0-0.10,9,Study 9,Session 9,NA,null,"<div style=""font-size:60px;"">+</div>",null,fixation,NA,NA,NA,NA
NA,NA,NA,NA,NA,image-keyboard-response,36,268926,0.0-5.0-1.10,9,Study 9,Session 9,NA,null,img/encoding_events/Event_11.jpg,null,NA,NA,NA,NA,NA
NA,NA,NA,NA,NA,html-keyboard-response,37,268930,0.0-5.0-2.10,9,Study 9,Session 9,NA,null,Please press the <strong><u>a</u></strong> key to continue,null,response,a,0,FALSE,NA
NA,NA,NA,NA,NA,html-keyboard-response,38,269432,0.0-5.0-0.11,9,Study 9,Session 9,NA,null,"<div style=""font-size:60px;"">+</div>",null,fixation,NA,NA,NA,NA
NA,NA,NA,NA,NA,image-keyboard-response,39,275445,0.0-5.0-1.11,9,Study 9,Session 9,NA,null,img/encoding_events/Event_12.jpg,null,NA,NA,NA,NA,NA
NA,NA,NA,NA,NA,html-keyboard-response,40,281451,0.0-5.0-2.11,9,Study 9,Session 9,NA,null,Please press the <strong><u>j</u></strong> key to continue,null,response,j,6000,FALSE,NA
NA,NA,NA,NA,NA,html-keyboard-response,41,281954,0.0-5.0-0.12,9,Study 9,Session 9,NA,null,"<div style=""font-size:60px;"">+</div>",null,fixation,NA,NA,NA,NA
NA,NA,NA,NA,NA,image-keyboard-response,42,287963,0.0-5.0-1.12,9,Study 9,Session 9,NA,null,img/encoding_events/Event_10.jpg,null,NA,NA,NA,NA,NA
NA,NA,NA,NA,NA,html-keyboard-response,43,287969,0.0-5.0-2.12,9,Study 9,Session 9,NA,null,Please press the <strong><u>a</u></strong> key to continue,null,response,a,0,FALSE,NA
NA,NA,NA,NA,NA,html-keyboard-response,44,288474,0.0-5.0-0.13,9,Study 9,Session 9,NA,null,"<div style=""font-size:60px;"">+</div>",null,fixation,NA,NA,NA,NA
NA,NA,NA,NA,NA,image-keyboard-response,45,294485,0.0-5.0-1.13,9,Study 9,Session 9,NA,null,img/encoding_events/Event_8.jpg,null,NA,NA,NA,NA,NA
NA,NA,NA,NA,NA,html-keyboard-response,46,294490,0.0-5.0-2.13,9,Study 9,Session 9,NA,null,Please press the <strong><u>f</u></strong> key to continue,null,response,f,0,FALSE,NA
NA,NA,NA,NA,NA,html-keyboard-response,47,294996,0.0-5.0-0.14,9,Study 9,Session 9,NA,null,"<div style=""font-size:60px;"">+</div>",null,fixation,NA,NA,NA,NA
NA,NA,NA,NA,NA,image-keyboard-response,48,301008,0.0-5.0-1.14,9,Study 9,Session 9,NA,null,img/encoding_events/Event_2.jpg,null,NA,NA,NA,NA,NA
NA,NA,NA,NA,NA,html-keyboard-response,49,301014,0.0-5.0-2.14,9,Study 9,Session 9,NA,null,Please press the <strong><u>k</u></strong> key to continue,null,response,k,0,FALSE,NA
NA,NA,NA,NA,NA,html-keyboard-response,50,301520,0.0-5.0-0.15,9,Study 9,Session 9,NA,null,"<div style=""font-size:60px;"">+</div>",null,fixation,NA,NA,NA,NA
NA,NA,NA,NA,NA,image-keyboard-response,51,307530,0.0-5.0-1.15,9,Study 9,Session 9,NA,null,img/encoding_events/Event_4.jpg,null,NA,NA,NA,NA,NA
NA,NA,NA,NA,NA,html-keyboard-response,52,309774,0.0-5.0-2.15,9,Study 9,Session 9,NA,2244,Please press the <strong><u>d</u></strong> key to continue,d,response,d,6000,TRUE,NA
NA,NA,NA,NA,NA,html-keyboard-response,53,310279,0.0-5.0-0.16,9,Study 9,Session 9,NA,null,"<div style=""font-size:60px;"">+</div>",null,fixation,NA,NA,NA,NA
NA,NA,NA,NA,NA,image-keyboard-response,54,316292,0.0-5.0-1.16,9,Study 9,Session 9,NA,null,img/encoding_events/Event_19.jpg,null,NA,NA,NA,NA,NA
NA,NA,NA,NA,NA,html-keyboard-response,55,316294,0.0-5.0-2.16,9,Study 9,Session 9,NA,null,Please press the <strong><u>s</u></strong> key to continue,null,response,s,0,FALSE,NA
NA,NA,NA,NA,NA,html-keyboard-response,56,316796,0.0-5.0-0.17,9,Study 9,Session 9,NA,null,"<div style=""font-size:60px;"">+</div>",null,fixation,NA,NA,NA,NA
NA,NA,NA,NA,NA,image-keyboard-response,57,322808,0.0-5.0-1.17,9,Study 9,Session 9,NA,null,img/encoding_events/Event_18.jpg,null,NA,NA,NA,NA,NA
NA,NA,NA,NA,NA,html-keyboard-response,58,322815,0.0-5.0-2.17,9,Study 9,Session 9,NA,null,Please press the <strong><u>d</u></strong> key to continue,null,response,d,0,FALSE,NA
NA,NA,NA,NA,NA,html-keyboard-response,59,323321,0.0-5.0-0.18,9,Study 9,Session 9,NA,null,"<div style=""font-size:60px;"">+</div>",null,fixation,NA,NA,NA,NA
NA,NA,NA,NA,NA,image-keyboard-response,60,329330,0.0-5.0-1.18,9,Study 9,Session 9,NA,null,img/encoding_events/Event_17.jpg,null,NA,NA,NA,NA,NA
NA,NA,NA,NA,NA,html-keyboard-response,61,329335,0.0-5.0-2.18,9,Study 9,Session 9,NA,null,Please press the <strong><u>f</u></strong> key to continue,null,response,f,0,FALSE,NA
NA,NA,NA,NA,NA,html-keyboard-response,62,329839,0.0-5.0-0.19,9,Study 9,Session 9,NA,null,"<div style=""font-size:60px;"">+</div>",null,fixation,NA,NA,NA,NA
NA,NA,NA,NA,NA,image-keyboard-response,63,335851,0.0-5.0-1.19,9,Study 9,Session 9,NA,null,img/encoding_events/Event_20.jpg,null,NA,NA,NA,NA,NA
NA,NA,NA,NA,NA,html-keyboard-response,64,339836,0.0-5.0-2.19,9,Study 9,Session 9,NA,3985,Please press the <strong><u>s</u></strong> key to continue,s,response,s,6000,TRUE,NA
NA,NA,NA,NA,NA,html-keyboard-response,65,340340,0.0-5.0-0.20,9,Study 9,Session 9,NA,null,"<div style=""font-size:60px;"">+</div>",null,fixation,NA,NA,NA,NA
NA,NA,NA,NA,NA,image-keyboard-response,66,346351,0.0-5.0-1.20,9,Study 9,Session 9,NA,null,img/encoding_events/Event_21.jpg,null,NA,NA,NA,NA,NA
NA,NA,NA,NA,NA,html-keyboard-response,67,346353,0.0-5.0-2.20,9,Study 9,Session 9,NA,null,Please press the <strong><u>d</u></strong> key to continue,null,response,d,0,FALSE,NA
NA,NA,NA,NA,NA,html-keyboard-response,68,346858,0.0-5.0-0.21,9,Study 9,Session 9,NA,null,"<div style=""font-size:60px;"">+</div>",null,fixation,NA,NA,NA,NA
NA,NA,NA,NA,NA,image-keyboard-response,69,352870,0.0-5.0-1.21,9,Study 9,Session 9,NA,null,img/encoding_events/Event_22.jpg,null,NA,NA,NA,NA,NA
NA,NA,NA,NA,NA,html-keyboard-response,70,352876,0.0-5.0-2.21,9,Study 9,Session 9,NA,null,Please press the <strong><u>k</u></strong> key to continue,null,response,k,0,FALSE,NA
NA,NA,NA,NA,NA,html-keyboard-response,71,353378,0.0-5.0-0.22,9,Study 9,Session 9,NA,null,"<div style=""font-size:60px;"">+</div>",null,fixation,NA,NA,NA,NA
NA,NA,NA,NA,NA,image-keyboard-response,72,359387,0.0-5.0-1.22,9,Study 9,Session 9,NA,null,img/encoding_events/Event_24.jpg,null,NA,NA,NA,NA,NA
NA,NA,NA,NA,NA,html-keyboard-response,73,359392,0.0-5.0-2.22,9,Study 9,Session 9,NA,null,Please press the <strong><u>f</u></strong> key to continue,null,response,f,0,FALSE,NA
NA,NA,NA,NA,NA,html-keyboard-response,74,359896,0.0-5.0-0.23,9,Study 9,Session 9,NA,null,"<div style=""font-size:60px;"">+</div>",null,fixation,NA,NA,NA,NA
NA,NA,NA,NA,NA,image-keyboard-response,75,365905,0.0-5.0-1.23,9,Study 9,Session 9,NA,null,img/encoding_events/Event_23.jpg,null,NA,NA,NA,NA,NA
NA,NA,NA,NA,NA,html-keyboard-response,76,368913,0.0-5.0-2.23,9,Study 9,Session 9,NA,3007,Please press the <strong><u>a</u></strong> key to continue,a,response,a,6000,TRUE,NA
NA,NA,NA,NA,NA,instructions,77,512080,0.0-6.0,9,Study 9,Session 9,"[{""page_index"":0,""viewing_time"":2025},{""page_index"":1,""viewing_time"":4518},{""page_index"":2,""viewing_time"":4179},{""page_index"":3,""viewing_time"":102873},{""page_index"":4,""viewing_time"":4999},{""page_index"":5,""viewing_time"":22968},{""page_index"":6,""viewing_time"":1603}]",143165,NA,NA,NA,NA,NA,NA,NA
NA,NA,NA,NA,NA,image-keyboard-response,78,516645,0.0-7.0-0.0-0.0,9,Study 9,Session 9,NA,2052,img/testing_events/Ac/Test_Ac_Event_19.jpg,e,response,n,NA,FALSE,Ac
NA,NA,NA,NA,NA,image-keyboard-response,79,519563,0.0-7.0-0.0-0.1,9,Study 9,Session 9,NA,2913,img/testing_events/Ac/Test_Ac_Event_4.jpg,e,response,e,NA,TRUE,Ac
NA,NA,NA,NA,NA,image-keyboard-response,80,524857,0.0-7.0-0.0-0.2,9,Study 9,Session 9,NA,5288,img/testing_events/Ac/Test_Ac_Event_1.jpg,c,response,u,NA,FALSE,Ac
NA,NA,NA,NA,NA,image-keyboard-response,81,529848,0.0-7.0-0.0-0.3,9,Study 9,Session 9,NA,4985,img/testing_events/Ac/Test_Ac_Event_15.jpg,n,response,n,NA,TRUE,Ac
NA,NA,NA,NA,NA,image-keyboard-response,82,533151,0.0-7.0-0.0-0.4,9,Study 9,Session 9,NA,3298,img/testing_events/Ac/Test_Ac_Event_2.jpg,c,response,c,NA,TRUE,Ac
NA,NA,NA,NA,NA,image-keyboard-response,83,538866,0.0-7.0-0.0-0.5,9,Study 9,Session 9,NA,5709,img/testing_events/Ac/Test_Ac_Event_6.jpg,c,response,c,NA,TRUE,Ac
NA,NA,NA,NA,NA,image-keyboard-response,84,543043,0.0-7.0-0.0-0.6,9,Study 9,Session 9,NA,4171,img/testing_events/Ac/Test_Ac_Event_10.jpg,c,response,c,NA,TRUE,Ac
NA,NA,NA,NA,NA,image-keyboard-response,85,545065,0.0-7.0-0.0-0.7,9,Study 9,Session 9,NA,2017,img/testing_events/Ac/Test_Ac_Event_12.jpg,e,response,e,NA,TRUE,Ac
NA,NA,NA,NA,NA,image-keyboard-response,86,551392,0.0-7.0-0.0-0.8,9,Study 9,Session 9,NA,6322,img/testing_events/Ac/Test_Ac_Event_5.jpg,c,response,u,NA,FALSE,Ac
NA,NA,NA,NA,NA,image-keyboard-response,87,557637,0.0-7.0-0.0-0.9,9,Study 9,Session 9,NA,6239,img/testing_events/Ac/Test_Ac_Event_8.jpg,e,response,e,NA,TRUE,Ac
NA,NA,NA,NA,NA,image-keyboard-response,88,560137,0.0-7.0-0.0-0.10,9,Study 9,Session 9,NA,2493,img/testing_events/Ac/Test_Ac_Event_17.jpg,u,response,u,NA,TRUE,Ac
NA,NA,NA,NA,NA,image-keyboard-response,89,566892,0.0-7.0-0.0-0.11,9,Study 9,Session 9,NA,6747,img/testing_events/Ac/Test_Ac_Event_22.jpg,c,response,c,NA,TRUE,Ac
NA,NA,NA,NA,NA,image-keyboard-response,90,568599,0.0-7.0-0.0-0.12,9,Study 9,Session 9,NA,1699,img/testing_events/Ac/Test_Ac_Event_24.jpg,e,response,e,NA,TRUE,Ac
NA,NA,NA,NA,NA,image-keyboard-response,91,571487,0.0-7.0-0.0-0.13,9,Study 9,Session 9,NA,2881,img/testing_events/Ac/Test_Ac_Event_11.jpg,n,response,n,NA,TRUE,Ac
NA,NA,NA,NA,NA,image-keyboard-response,92,575997,0.0-7.0-0.0-0.14,9,Study 9,Session 9,NA,4505,img/testing_events/Ac/Test_Ac_Event_16.jpg,e,response,e,NA,TRUE,Ac
NA,NA,NA,NA,NA,image-keyboard-response,93,585042,0.0-7.0-0.0-0.15,9,Study 9,Session 9,NA,9038,img/testing_events/Ac/Test_Ac_Event_23.jpg,e,response,n,NA,FALSE,Ac
NA,NA,NA,NA,NA,image-keyboard-response,94,589889,0.0-7.0-0.0-0.16,9,Study 9,Session 9,NA,4841,img/testing_events/Ac/Test_Ac_Event_13.jpg,e,response,u,NA,FALSE,Ac
NA,NA,NA,NA,NA,image-keyboard-response,95,594602,0.0-7.0-0.0-0.17,9,Study 9,Session 9,NA,4708,img/testing_events/Ac/Test_Ac_Event_3.jpg,u,response,n,NA,FALSE,Ac
NA,NA,NA,NA,NA,image-keyboard-response,96,596223,0.0-7.0-0.0-0.18,9,Study 9,Session 9,NA,1615,img/testing_events/Ac/Test_Ac_Event_21.jpg,u,response,u,NA,TRUE,Ac
NA,NA,NA,NA,NA,image-keyboard-response,97,600477,0.0-7.0-0.0-0.19,9,Study 9,Session 9,NA,4249,img/testing_events/Ac/Test_Ac_Event_7.jpg,n,response,n,NA,TRUE,Ac
NA,NA,NA,NA,NA,image-keyboard-response,98,606262,0.0-7.0-0.0-0.20,9,Study 9,Session 9,NA,5779,img/testing_events/Ac/Test_Ac_Event_20.jpg,e,response,e,NA,TRUE,Ac
NA,NA,NA,NA,NA,image-keyboard-response,99,616847,0.0-7.0-0.0-0.21,9,Study 9,Session 9,NA,10578,img/testing_events/Ac/Test_Ac_Event_9.jpg,u,response,u,NA,TRUE,Ac
NA,NA,NA,NA,NA,image-keyboard-response,100,621216,0.0-7.0-0.0-0.22,9,Study 9,Session 9,NA,4363,img/testing_events/Ac/Test_Ac_Event_18.jpg,c,response,c,NA,TRUE,Ac
NA,NA,NA,NA,NA,image-keyboard-response,101,625176,0.0-7.0-0.0-0.23,9,Study 9,Session 9,NA,3953,img/testing_events/Ac/Test_Ac_Event_14.jpg,c,response,c,NA,TRUE,Ac
NA,NA,NA,NA,NA,image-keyboard-response,102,630711,0.0-7.0-1.0-0.0,9,Study 9,Session 9,NA,5528,img/testing_events/Ab/Test_Ab_Event_3.jpg,c,response,c,NA,TRUE,Ab
NA,NA,NA,NA,NA,image-keyboard-response,103,634233,0.0-7.0-1.0-0.1,9,Study 9,Session 9,NA,3515,img/testing_events/Ab/Test_Ab_Event_10.jpg,u,response,u,NA,TRUE,Ab
NA,NA,NA,NA,NA,image-keyboard-response,104,639175,0.0-7.0-1.0-0.2,9,Study 9,Session 9,NA,4938,img/testing_events/Ab/Test_Ab_Event_1.jpg,e,response,e,NA,TRUE,Ab
NA,NA,NA,NA,NA,image-keyboard-response,105,642905,0.0-7.0-1.0-0.3,9,Study 9,Session 9,NA,3724,img/testing_events/Ab/Test_Ab_Event_11.jpg,c,response,c,NA,TRUE,Ab
NA,NA,NA,NA,NA,image-keyboard-response,106,645286,0.0-7.0-1.0-0.4,9,Study 9,Session 9,NA,2374,img/testing_events/Ab/Test_Ab_Event_15.jpg,c,response,c,NA,TRUE,Ab
NA,NA,NA,NA,NA,image-keyboard-response,107,651526,0.0-7.0-1.0-0.5,9,Study 9,Session 9,NA,6235,img/testing_events/Ab/Test_Ab_Event_7.jpg,c,response,c,NA,TRUE,Ab
NA,NA,NA,NA,NA,image-keyboard-response,108,658670,0.0-7.0-1.0-0.6,9,Study 9,Session 9,NA,7136,img/testing_events/Ab/Test_Ab_Event_22.jpg,u,response,u,NA,TRUE,Ab
NA,NA,NA,NA,NA,image-keyboard-response,109,662377,0.0-7.0-1.0-0.7,9,Study 9,Session 9,NA,3701,img/testing_events/Ab/Test_Ab_Event_2.jpg,u,response,u,NA,TRUE,Ab
NA,NA,NA,NA,NA,image-keyboard-response,110,667493,0.0-7.0-1.0-0.8,9,Study 9,Session 9,NA,5109,img/testing_events/Ab/Test_Ab_Event_14.jpg,u,response,u,NA,TRUE,Ab
NA,NA,NA,NA,NA,image-keyboard-response,111,677735,0.0-7.0-1.0-0.9,9,Study 9,Session 9,NA,10234,img/testing_events/Ab/Test_Ab_Event_12.jpg,n,response,n,NA,TRUE,Ab
NA,NA,NA,NA,NA,image-keyboard-response,112,683273,0.0-7.0-1.0-0.10,9,Study 9,Session 9,NA,5532,img/testing_events/Ab/Test_Ab_Event_5.jpg,e,response,e,NA,TRUE,Ab
NA,NA,NA,NA,NA,image-keyboard-response,113,684604,0.0-7.0-1.0-0.11,9,Study 9,Session 9,NA,1322,img/testing_events/Ab/Test_Ab_Event_21.jpg,e,response,e,NA,TRUE,Ab
NA,NA,NA,NA,NA,image-keyboard-response,114,686326,0.0-7.0-1.0-0.12,9,Study 9,Session 9,NA,1717,img/testing_events/Ab/Test_Ab_Event_4.jpg,n,response,n,NA,TRUE,Ab
NA,NA,NA,NA,NA,image-keyboard-response,115,690734,0.0-7.0-1.0-0.13,9,Study 9,Session 9,NA,4400,img/testing_events/Ab/Test_Ab_Event_23.jpg,e,response,c,NA,FALSE,Ab
NA,NA,NA,NA,NA,image-keyboard-response,116,693061,0.0-7.0-1.0-0.14,9,Study 9,Session 9,NA,2323,img/testing_events/Ab/Test_Ab_Event_13.jpg,e,response,e,NA,TRUE,Ab
NA,NA,NA,NA,NA,image-keyboard-response,117,699005,0.0-7.0-1.0-0.15,9,Study 9,Session 9,NA,5937,img/testing_events/Ab/Test_Ab_Event_6.jpg,n,response,u,NA,FALSE,Ab
NA,NA,NA,NA,NA,image-keyboard-response,118,700338,0.0-7.0-1.0-0.16,9,Study 9,Session 9,NA,1327,img/testing_events/Ab/Test_Ab_Event_16.jpg,n,response,n,NA,TRUE,Ab
NA,NA,NA,NA,NA,image-keyboard-response,119,702604,0.0-7.0-1.0-0.17,9,Study 9,Session 9,NA,2260,img/testing_events/Ab/Test_Ab_Event_19.jpg,c,response,c,NA,TRUE,Ab
NA,NA,NA,NA,NA,image-keyboard-response,120,703903,0.0-7.0-1.0-0.18,9,Study 9,Session 9,NA,1293,img/testing_events/Ab/Test_Ab_Event_17.jpg,e,response,e,NA,TRUE,Ab
NA,NA,NA,NA,NA,image-keyboard-response,121,706851,0.0-7.0-1.0-0.19,9,Study 9,Session 9,NA,2941,img/testing_events/Ab/Test_Ab_Event_18.jpg,u,response,u,NA,TRUE,Ab
NA,NA,NA,NA,NA,image-keyboard-response,122,716514,0.0-7.0-1.0-0.20,9,Study 9,Session 9,NA,9657,img/testing_events/Ab/Test_Ab_Event_8.jpg,c,response,n,NA,FALSE,Ab
NA,NA,NA,NA,NA,image-keyboard-response,123,720325,0.0-7.0-1.0-0.21,9,Study 9,Session 9,NA,3804,img/testing_events/Ab/Test_Ab_Event_20.jpg,n,response,n,NA,TRUE,Ab
NA,NA,NA,NA,NA,image-keyboard-response,124,724043,0.0-7.0-1.0-0.22,9,Study 9,Session 9,NA,3712,img/testing_events/Ab/Test_Ab_Event_24.jpg,n,response,n,NA,TRUE,Ab
NA,NA,NA,NA,NA,image-keyboard-response,125,727025,0.0-7.0-1.0-0.23,9,Study 9,Session 9,NA,2977,img/testing_events/Ab/Test_Ab_Event_9.jpg,e,response,e,NA,TRUE,Ab
NA,NA,NA,NA,NA,image-keyboard-response,126,731624,0.0-7.0-2.0-0.0,9,Study 9,Session 9,NA,4593,img/testing_events/Ca/Test_Ca_Event_12.jpg,n,response,n,NA,TRUE,Ca
NA,NA,NA,NA,NA,image-keyboard-response,127,734243,0.0-7.0-2.0-0.1,9,Study 9,Session 9,NA,2614,img/testing_events/Ca/Test_Ca_Event_24.jpg,n,response,n,NA,TRUE,Ca
NA,NA,NA,NA,NA,image-keyboard-response,128,736270,0.0-7.0-2.0-0.2,9,Study 9,Session 9,NA,2022,img/testing_events/Ca/Test_Ca_Event_14.jpg,u,response,u,NA,TRUE,Ca
NA,NA,NA,NA,NA,image-keyboard-response,129,737722,0.0-7.0-2.0-0.3,9,Study 9,Session 9,NA,1446,img/testing_events/Ca/Test_Ca_Event_15.jpg,c,response,c,NA,TRUE,Ca
NA,NA,NA,NA,NA,image-keyboard-response,130,741989,0.0-7.0-2.0-0.4,9,Study 9,Session 9,NA,4258,img/testing_events/Ca/Test_Ca_Event_16.jpg,n,response,n,NA,TRUE,Ca
NA,NA,NA,NA,NA,image-keyboard-response,131,748740,0.0-7.0-2.0-0.5,9,Study 9,Session 9,NA,6743,img/testing_events/Ca/Test_Ca_Event_6.jpg,u,response,u,NA,TRUE,Ca
NA,NA,NA,NA,NA,image-keyboard-response,132,751284,0.0-7.0-2.0-0.6,9,Study 9,Session 9,NA,2534,img/testing_events/Ca/Test_Ca_Event_13.jpg,e,response,e,NA,TRUE,Ca
NA,NA,NA,NA,NA,image-keyboard-response,133,754381,0.0-7.0-2.0-0.7,9,Study 9,Session 9,NA,3090,img/testing_events/Ca/Test_Ca_Event_20.jpg,n,response,n,NA,TRUE,Ca
NA,NA,NA,NA,NA,image-keyboard-response,134,756274,0.0-7.0-2.0-0.8,9,Study 9,Session 9,NA,1888,img/testing_events/Ca/Test_Ca_Event_5.jpg,e,response,e,NA,TRUE,Ca
NA,NA,NA,NA,NA,image-keyboard-response,135,756350,0.0-7.0-2.0-0.9,9,Study 9,Session 9,NA,70,img/testing_events/Ca/Test_Ca_Event_4.jpg,e,response,n,NA,FALSE,Ca
NA,NA,NA,NA,NA,image-keyboard-response,136,763112,0.0-7.0-2.0-0.10,9,Study 9,Session 9,NA,6756,img/testing_events/Ca/Test_Ca_Event_18.jpg,n,response,u,NA,FALSE,Ca
NA,NA,NA,NA,NA,image-keyboard-response,137,768219,0.0-7.0-2.0-0.11,9,Study 9,Session 9,NA,5100,img/testing_events/Ca/Test_Ca_Event_8.jpg,u,response,n,NA,FALSE,Ca
NA,NA,NA,NA,NA,image-keyboard-response,138,769625,0.0-7.0-2.0-0.12,9,Study 9,Session 9,NA,1400,img/testing_events/Ca/Test_Ca_Event_9.jpg,e,response,e,NA,TRUE,Ca
NA,NA,NA,NA,NA,image-keyboard-response,139,771772,0.0-7.0-2.0-0.13,9,Study 9,Session 9,NA,2141,img/testing_events/Ca/Test_Ca_Event_21.jpg,e,response,e,NA,TRUE,Ca
NA,NA,NA,NA,NA,image-keyboard-response,140,775131,0.0-7.0-2.0-0.14,9,Study 9,Session 9,NA,3353,img/testing_events/Ca/Test_Ca_Event_23.jpg,c,response,c,NA,TRUE,Ca
NA,NA,NA,NA,NA,image-keyboard-response,141,777187,0.0-7.0-2.0-0.15,9,Study 9,Session 9,NA,2048,img/testing_events/Ca/Test_Ca_Event_3.jpg,c,response,c,NA,TRUE,Ca
NA,NA,NA,NA,NA,image-keyboard-response,142,779341,0.0-7.0-2.0-0.16,9,Study 9,Session 9,NA,2148,img/testing_events/Ca/Test_Ca_Event_7.jpg,c,response,c,NA,TRUE,Ca
NA,NA,NA,NA,NA,image-keyboard-response,143,794341,0.0-7.0-2.0-0.17,9,Study 9,Session 9,NA,14993,img/testing_events/Ca/Test_Ca_Event_19.jpg,c,response,c,NA,TRUE,Ca
NA,NA,NA,NA,NA,image-keyboard-response,144,795530,0.0-7.0-2.0-0.18,9,Study 9,Session 9,NA,1183,img/testing_events/Ca/Test_Ca_Event_17.jpg,e,response,e,NA,TRUE,Ca
NA,NA,NA,NA,NA,image-keyboard-response,145,797057,0.0-7.0-2.0-0.19,9,Study 9,Session 9,NA,1521,img/testing_events/Ca/Test_Ca_Event_22.jpg,u,response,u,NA,TRUE,Ca
NA,NA,NA,NA,NA,image-keyboard-response,146,799245,0.0-7.0-2.0-0.20,9,Study 9,Session 9,NA,2180,img/testing_events/Ca/Test_Ca_Event_1.jpg,e,response,e,NA,TRUE,Ca
NA,NA,NA,NA,NA,image-keyboard-response,147,802509,0.0-7.0-2.0-0.21,9,Study 9,Session 9,NA,3256,img/testing_events/Ca/Test_Ca_Event_11.jpg,c,response,c,NA,TRUE,Ca
NA,NA,NA,NA,NA,image-keyboard-response,148,804311,0.0-7.0-2.0-0.22,9,Study 9,Session 9,NA,1795,img/testing_events/Ca/Test_Ca_Event_2.jpg,u,response,u,NA,TRUE,Ca
NA,NA,NA,NA,NA,image-keyboard-response,149,806751,0.0-7.0-2.0-0.23,9,Study 9,Session 9,NA,2431,img/testing_events/Ca/Test_Ca_Event_10.jpg,u,response,u,NA,TRUE,Ca
NA,NA,NA,NA,NA,image-keyboard-response,150,812234,0.0-7.0-3.0-0.0,9,Study 9,Session 9,NA,5479,img/testing_events/Bc/Test_Bc_Event_23.jpg,e,response,u,NA,FALSE,Bc
NA,NA,NA,NA,NA,image-keyboard-response,151,817240,0.0-7.0-3.0-0.1,9,Study 9,Session 9,NA,5001,img/testing_events/Bc/Test_Bc_Event_4.jpg,c,response,c,NA,TRUE,Bc
NA,NA,NA,NA,NA,image-keyboard-response,152,818506,0.0-7.0-3.0-0.2,9,Study 9,Session 9,NA,1259,img/testing_events/Bc/Test_Bc_Event_17.jpg,n,response,n,NA,TRUE,Bc
NA,NA,NA,NA,NA,image-keyboard-response,153,819737,0.0-7.0-3.0-0.3,9,Study 9,Session 9,NA,1226,img/testing_events/Bc/Test_Bc_Event_14.jpg,e,response,e,NA,TRUE,Bc
NA,NA,NA,NA,NA,image-keyboard-response,154,821619,0.0-7.0-3.0-0.4,9,Study 9,Session 9,NA,1876,img/testing_events/Bc/Test_Bc_Event_24.jpg,u,response,c,NA,FALSE,Bc
NA,NA,NA,NA,NA,image-keyboard-response,155,823809,0.0-7.0-3.0-0.5,9,Study 9,Session 9,NA,2186,img/testing_events/Bc/Test_Bc_Event_13.jpg,n,response,n,NA,TRUE,Bc
NA,NA,NA,NA,NA,image-keyboard-response,156,825912,0.0-7.0-3.0-0.6,9,Study 9,Session 9,NA,2097,img/testing_events/Bc/Test_Bc_Event_7.jpg,c,response,u,NA,FALSE,Bc
NA,NA,NA,NA,NA,image-keyboard-response,157,828995,0.0-7.0-3.0-0.7,9,Study 9,Session 9,NA,3077,img/testing_events/Bc/Test_Bc_Event_22.jpg,e,response,e,NA,TRUE,Bc
NA,NA,NA,NA,NA,image-keyboard-response,158,831375,0.0-7.0-3.0-0.8,9,Study 9,Session 9,NA,2375,img/testing_events/Bc/Test_Bc_Event_18.jpg,e,response,e,NA,TRUE,Bc
NA,NA,NA,NA,NA,image-keyboard-response,159,833337,0.0-7.0-3.0-0.9,9,Study 9,Session 9,NA,1957,img/testing_events/Bc/Test_Bc_Event_9.jpg,n,response,n,NA,TRUE,Bc
NA,NA,NA,NA,NA,image-keyboard-response,160,835436,0.0-7.0-3.0-0.10,9,Study 9,Session 9,NA,2094,img/testing_events/Bc/Test_Bc_Event_21.jpg,n,response,n,NA,TRUE,Bc
NA,NA,NA,NA,NA,image-keyboard-response,161,836398,0.0-7.0-3.0-0.11,9,Study 9,Session 9,NA,957,img/testing_events/Bc/Test_Bc_Event_2.jpg,e,response,e,NA,TRUE,Bc
NA,NA,NA,NA,NA,image-keyboard-response,162,838718,0.0-7.0-3.0-0.12,9,Study 9,Session 9,NA,2315,img/testing_events/Bc/Test_Bc_Event_12.jpg,c,response,c,NA,TRUE,Bc
NA,NA,NA,NA,NA,image-keyboard-response,163,840856,0.0-7.0-3.0-0.13,9,Study 9,Session 9,NA,2134,img/testing_events/Bc/Test_Bc_Event_20.jpg,u,response,c,NA,FALSE,Bc
NA,NA,NA,NA,NA,image-keyboard-response,164,844078,0.0-7.0-3.0-0.14,9,Study 9,Session 9,NA,3217,img/testing_events/Bc/Test_Bc_Event_3.jpg,u,response,u,NA,TRUE,Bc
NA,NA,NA,NA,NA,image-keyboard-response,165,846002,0.0-7.0-3.0-0.15,9,Study 9,Session 9,NA,1917,img/testing_events/Bc/Test_Bc_Event_8.jpg,e,response,c,NA,FALSE,Bc
NA,NA,NA,NA,NA,image-keyboard-response,166,847378,0.0-7.0-3.0-0.16,9,Study 9,Session 9,NA,1368,img/testing_events/Bc/Test_Bc_Event_6.jpg,c,response,e,NA,FALSE,Bc
NA,NA,NA,NA,NA,image-keyboard-response,167,848595,0.0-7.0-3.0-0.17,9,Study 9,Session 9,NA,1212,img/testing_events/Bc/Test_Bc_Event_5.jpg,n,response,n,NA,TRUE,Bc
NA,NA,NA,NA,NA,image-keyboard-response,168,853575,0.0-7.0-3.0-0.18,9,Study 9,Session 9,NA,4974,img/testing_events/Bc/Test_Bc_Event_11.jpg,u,response,u,NA,TRUE,Bc
NA,NA,NA,NA,NA,image-keyboard-response,169,854726,0.0-7.0-3.0-0.19,9,Study 9,Session 9,NA,1145,img/testing_events/Bc/Test_Bc_Event_15.jpg,u,response,u,NA,TRUE,Bc
NA,NA,NA,NA,NA,image-keyboard-response,170,858402,0.0-7.0-3.0-0.20,9,Study 9,Session 9,NA,3671,img/testing_events/Bc/Test_Bc_Event_19.jpg,u,response,u,NA,TRUE,Bc
NA,NA,NA,NA,NA,image-keyboard-response,171,862747,0.0-7.0-3.0-0.21,9,Study 9,Session 9,NA,4338,img/testing_events/Bc/Test_Bc_Event_1.jpg,u,response,n,NA,FALSE,Bc
NA,NA,NA,NA,NA,image-keyboard-response,172,866234,0.0-7.0-3.0-0.22,9,Study 9,Session 9,NA,3481,img/testing_events/Bc/Test_Bc_Event_10.jpg,e,response,e,NA,TRUE,Bc
NA,NA,NA,NA,NA,image-keyboard-response,173,867897,0.0-7.0-3.0-0.23,9,Study 9,Session 9,NA,1657,img/testing_events/Bc/Test_Bc_Event_16.jpg,c,response,c,NA,TRUE,Bc
NA,NA,NA,NA,NA,image-keyboard-response,174,871274,0.0-7.0-4.0-0.0,9,Study 9,Session 9,NA,3372,img/testing_events/Ba/Test_Ba_Event_19.jpg,e,response,e,NA,TRUE,Ba
NA,NA,NA,NA,NA,image-keyboard-response,175,872844,0.0-7.0-4.0-0.1,9,Study 9,Session 9,NA,1562,img/testing_events/Ba/Test_Ba_Event_3.jpg,e,response,e,NA,TRUE,Ba
NA,NA,NA,NA,NA,image-keyboard-response,176,874458,0.0-7.0-4.0-0.2,9,Study 9,Session 9,NA,1608,img/testing_events/Ba/Test_Ba_Event_16.jpg,u,response,u,NA,TRUE,Ba
NA,NA,NA,NA,NA,image-keyboard-response,177,877780,0.0-7.0-4.0-0.3,9,Study 9,Session 9,NA,3316,img/testing_events/Ba/Test_Ba_Event_1.jpg,c,response,c,NA,TRUE,Ba
NA,NA,NA,NA,NA,image-keyboard-response,178,880005,0.0-7.0-4.0-0.4,9,Study 9,Session 9,NA,2220,img/testing_events/Ba/Test_Ba_Event_9.jpg,c,response,c,NA,TRUE,Ba
NA,NA,NA,NA,NA,image-keyboard-response,179,882385,0.0-7.0-4.0-0.5,9,Study 9,Session 9,NA,2373,img/testing_events/Ba/Test_Ba_Event_22.jpg,n,response,n,NA,TRUE,Ba
NA,NA,NA,NA,NA,image-keyboard-response,180,885447,0.0-7.0-4.0-0.6,9,Study 9,Session 9,NA,3055,img/testing_events/Ba/Test_Ba_Event_14.jpg,n,response,n,NA,TRUE,Ba
NA,NA,NA,NA,NA,image-keyboard-response,181,893328,0.0-7.0-4.0-0.7,9,Study 9,Session 9,NA,7875,img/testing_events/Ba/Test_Ba_Event_23.jpg,e,response,e,NA,TRUE,Ba
NA,NA,NA,NA,NA,image-keyboard-response,182,894479,0.0-7.0-4.0-0.8,9,Study 9,Session 9,NA,1145,img/testing_events/Ba/Test_Ba_Event_17.jpg,c,response,c,NA,TRUE,Ba
NA,NA,NA,NA,NA,image-keyboard-response,183,895643,0.0-7.0-4.0-0.9,9,Study 9,Session 9,NA,1156,img/testing_events/Ba/Test_Ba_Event_15.jpg,e,response,e,NA,TRUE,Ba
NA,NA,NA,NA,NA,image-keyboard-response,184,901218,0.0-7.0-4.0-0.10,9,Study 9,Session 9,NA,5567,img/testing_events/Ba/Test_Ba_Event_11.jpg,u,response,e,NA,FALSE,Ba
NA,NA,NA,NA,NA,image-keyboard-response,185,906686,0.0-7.0-4.0-0.11,9,Study 9,Session 9,NA,5460,img/testing_events/Ba/Test_Ba_Event_10.jpg,n,response,n,NA,TRUE,Ba
NA,NA,NA,NA,NA,image-keyboard-response,186,908235,0.0-7.0-4.0-0.12,9,Study 9,Session 9,NA,1542,img/testing_events/Ba/Test_Ba_Event_2.jpg,n,response,n,NA,TRUE,Ba
NA,NA,NA,NA,NA,image-keyboard-response,187,911383,0.0-7.0-4.0-0.13,9,Study 9,Session 9,NA,3140,img/testing_events/Ba/Test_Ba_Event_8.jpg,u,response,u,NA,TRUE,Ba
NA,NA,NA,NA,NA,image-keyboard-response,188,913226,0.0-7.0-4.0-0.14,9,Study 9,Session 9,NA,1836,img/testing_events/Ba/Test_Ba_Event_21.jpg,c,response,c,NA,TRUE,Ba
NA,NA,NA,NA,NA,image-keyboard-response,189,914968,0.0-7.0-4.0-0.15,9,Study 9,Session 9,NA,1735,img/testing_events/Ba/Test_Ba_Event_5.jpg,c,response,c,NA,TRUE,Ba
NA,NA,NA,NA,NA,image-keyboard-response,190,918426,0.0-7.0-4.0-0.16,9,Study 9,Session 9,NA,3452,img/testing_events/Ba/Test_Ba_Event_13.jpg,c,response,c,NA,TRUE,Ba
NA,NA,NA,NA,NA,image-keyboard-response,191,920133,0.0-7.0-4.0-0.17,9,Study 9,Session 9,NA,1702,img/testing_events/Ba/Test_Ba_Event_12.jpg,u,response,u,NA,TRUE,Ba
NA,NA,NA,NA,NA,image-keyboard-response,192,921865,0.0-7.0-4.0-0.18,9,Study 9,Session 9,NA,1725,img/testing_events/Ba/Test_Ba_Event_20.jpg,u,response,u,NA,TRUE,Ba
NA,NA,NA,NA,NA,image-keyboard-response,193,929549,0.0-7.0-4.0-0.19,9,Study 9,Session 9,NA,7678,img/testing_events/Ba/Test_Ba_Event_7.jpg,e,response,e,NA,TRUE,Ba
NA,NA,NA,NA,NA,image-keyboard-response,194,938780,0.0-7.0-4.0-0.20,9,Study 9,Session 9,NA,9223,img/testing_events/Ba/Test_Ba_Event_24.jpg,u,response,u,NA,TRUE,Ba
NA,NA,NA,NA,NA,image-keyboard-response,195,942837,0.0-7.0-4.0-0.21,9,Study 9,Session 9,NA,4051,img/testing_events/Ba/Test_Ba_Event_4.jpg,u,response,u,NA,TRUE,Ba
NA,NA,NA,NA,NA,image-keyboard-response,196,945268,0.0-7.0-4.0-0.22,9,Study 9,Session 9,NA,2424,img/testing_events/Ba/Test_Ba_Event_6.jpg,n,response,n,NA,TRUE,Ba
NA,NA,NA,NA,NA,image-keyboard-response,197,947402,0.0-7.0-4.0-0.23,9,Study 9,Session 9,NA,2128,img/testing_events/Ba/Test_Ba_Event_18.jpg,n,response,n,NA,TRUE,Ba
NA,NA,NA,NA,NA,image-keyboard-response,198,949269,0.0-7.0-5.0-0.0,9,Study 9,Session 9,NA,1861,img/testing_events/Cb/Test_Cb_Event_5.jpg,u,response,u,NA,TRUE,Cb
NA,NA,NA,NA,NA,image-keyboard-response,199,969528,0.0-7.0-5.0-0.1,9,Study 9,Session 9,NA,20253,img/testing_events/Cb/Test_Cb_Event_24.jpg,n,response,e,NA,FALSE,Cb
NA,NA,NA,NA,NA,image-keyboard-response,200,973032,0.0-7.0-5.0-0.2,9,Study 9,Session 9,NA,3497,img/testing_events/Cb/Test_Cb_Event_8.jpg,e,response,e,NA,TRUE,Cb
NA,NA,NA,NA,NA,image-keyboard-response,201,974042,0.0-7.0-5.0-0.3,9,Study 9,Session 9,NA,1002,img/testing_events/Cb/Test_Cb_Event_16.jpg,e,response,e,NA,TRUE,Cb
NA,NA,NA,NA,NA,image-keyboard-response,202,975452,0.0-7.0-5.0-0.4,9,Study 9,Session 9,NA,1404,img/testing_events/Cb/Test_Cb_Event_7.jpg,n,response,n,NA,TRUE,Cb
NA,NA,NA,NA,NA,image-keyboard-response,203,978066,0.0-7.0-5.0-0.5,9,Study 9,Session 9,NA,2608,img/testing_events/Cb/Test_Cb_Event_6.jpg,n,response,c,NA,FALSE,Cb
NA,NA,NA,NA,NA,image-keyboard-response,204,980721,0.0-7.0-5.0-0.6,9,Study 9,Session 9,NA,2649,img/testing_events/Cb/Test_Cb_Event_23.jpg,n,response,n,NA,TRUE,Cb
NA,NA,NA,NA,NA,image-keyboard-response,205,981996,0.0-7.0-5.0-0.7,9,Study 9,Session 9,NA,1269,img/testing_events/Cb/Test_Cb_Event_9.jpg,u,response,u,NA,TRUE,Cb
NA,NA,NA,NA,NA,image-keyboard-response,206,983635,0.0-7.0-5.0-0.8,9,Study 9,Session 9,NA,1635,img/testing_events/Cb/Test_Cb_Event_15.jpg,e,response,n,NA,FALSE,Cb
NA,NA,NA,NA,NA,image-keyboard-response,207,988672,0.0-7.0-5.0-0.9,9,Study 9,Session 9,NA,5031,img/testing_events/Cb/Test_Cb_Event_1.jpg,u,response,u,NA,TRUE,Cb
NA,NA,NA,NA,NA,image-keyboard-response,208,991082,0.0-7.0-5.0-0.10,9,Study 9,Session 9,NA,2405,img/testing_events/Cb/Test_Cb_Event_10.jpg,c,response,c,NA,TRUE,Cb
NA,NA,NA,NA,NA,image-keyboard-response,209,993734,0.0-7.0-5.0-0.11,9,Study 9,Session 9,NA,2646,img/testing_events/Cb/Test_Cb_Event_13.jpg,u,response,u,NA,TRUE,Cb
NA,NA,NA,NA,NA,image-keyboard-response,210,995822,0.0-7.0-5.0-0.12,9,Study 9,Session 9,NA,2083,img/testing_events/Cb/Test_Cb_Event_2.jpg,c,response,c,NA,TRUE,Cb
NA,NA,NA,NA,NA,image-keyboard-response,211,996998,0.0-7.0-5.0-0.13,9,Study 9,Session 9,NA,1170,img/testing_events/Cb/Test_Cb_Event_21.jpg,u,response,u,NA,TRUE,Cb
NA,NA,NA,NA,NA,image-keyboard-response,212,1001339,0.0-7.0-5.0-0.14,9,Study 9,Session 9,NA,4335,img/testing_events/Cb/Test_Cb_Event_22.jpg,c,response,c,NA,TRUE,Cb
NA,NA,NA,NA,NA,image-keyboard-response,213,1002634,0.0-7.0-5.0-0.15,9,Study 9,Session 9,NA,1289,img/testing_events/Cb/Test_Cb_Event_14.jpg,c,response,c,NA,TRUE,Cb
NA,NA,NA,NA,NA,image-keyboard-response,214,1012338,0.0-7.0-5.0-0.16,9,Study 9,Session 9,NA,9698,img/testing_events/Cb/Test_Cb_Event_20.jpg,e,response,e,NA,TRUE,Cb
NA,NA,NA,NA,NA,image-keyboard-response,215,1014700,0.0-7.0-5.0-0.17,9,Study 9,Session 9,NA,2356,img/testing_events/Cb/Test_Cb_Event_19.jpg,n,response,n,NA,TRUE,Cb
NA,NA,NA,NA,NA,image-keyboard-response,216,1017380,0.0-7.0-5.0-0.18,9,Study 9,Session 9,NA,2673,img/testing_events/Cb/Test_Cb_Event_17.jpg,u,response,u,NA,TRUE,Cb
NA,NA,NA,NA,NA,image-keyboard-response,217,1024503,0.0-7.0-5.0-0.19,9,Study 9,Session 9,NA,7117,img/testing_events/Cb/Test_Cb_Event_12.jpg,e,response,e,NA,TRUE,Cb
NA,NA,NA,NA,NA,image-keyboard-response,218,1026087,0.0-7.0-5.0-0.20,9,Study 9,Session 9,NA,1577,img/testing_events/Cb/Test_Cb_Event_4.jpg,e,response,e,NA,TRUE,Cb
NA,NA,NA,NA,NA,image-keyboard-response,219,1029918,0.0-7.0-5.0-0.21,9,Study 9,Session 9,NA,3826,img/testing_events/Cb/Test_Cb_Event_18.jpg,c,response,c,NA,TRUE,Cb
NA,NA,NA,NA,NA,image-keyboard-response,220,1033771,0.0-7.0-5.0-0.22,9,Study 9,Session 9,NA,3846,img/testing_events/Cb/Test_Cb_Event_3.jpg,n,response,n,NA,TRUE,Cb
NA,NA,NA,NA,NA,image-keyboard-response,221,1036239,0.0-7.0-5.0-0.23,9,Study 9,Session 9,NA,2462,img/testing_events/Cb/Test_Cb_Event_11.jpg,n,response,n,NA,TRUE,Cb
NA,NA,NA,NA,NA,survey-text,222,1114181,0.0-8.0,9,Study 9,Session 9,NA,77934,NA,"{""Q0"":""No"",""Q1"":""No"",""Q2"":""Please pick less awkward keys. QW; OL would have worked, or AD; Up Down or something.""}",NA,NA,NA,NA,NA
NA,NA,NA,NA,NA,survey-html-form,223,1133887,0.0-9.0,9,Study 9,Session 9,NA,19701,NA,"{""Gender"":""Female"",""Age"":""29"",""ColorBlind"":""No"",""Education"":""Some College, no degree"",""Income"":""$0-$24,999"",""Race"":""Other/unknown"",""Fluent"":""Yes"",""AgeEnglish"":""0"",""Country"":""US""}",NA,NA,NA,NA,NA
TRUE,NA,NA,NA,NA,fullscreen,224,1133889,0.0-10.0,9,Study 9,Session 9,NA,NA,NA,NA,NA,NA,NA,NA,NA
