"success","timeout","failed_images","failed_audio","failed_video","trial_type","trial_index","time_elapsed","internal_node_id","subject_id","study_id","session_id","view_history","rt","stimulus","response","task","correct_response","correct","retrieval_group"
"true","false","[]","[]","[]","preload","0","231","0.0-0.0","test1_demo","1","test1","","","","","","","",""
"true","","","","","fullscreen","1","42280","0.0-1.0","test1_demo","1","test1","","","","","","","",""
"","","","","","instructions","2","50067","0.0-2.0","test1_demo","1","test1","[{""page_index"":0,""viewing_time"":7786}]","7786","","","","","",""
"","","","","","html-keyboard-response","3","61087","0.0-3.0","test1_demo","1","test1","","11018","Welcome to the experiment. <br /><br />This experiment will take about 20 minutes. Please complete all in one sitting. <br /><br />For this study, <strong>please use</strong> a laptop or desktop computer (not a mobile phone or tablet). Also, please use either <u>Chrome or Firefox</u>. <br /><br />Once you begin, <strong>DO NOT</strong> refresh the browser, as the experiment will reset and you will lose your progress. <br /><br />Press the <strong class=""upperline"">B</strong> key on your keyboard to begin.","b","","","",""
"","","","","","instructions","4","69867","0.0-4.0","test1_demo","1","test1","[{""page_index"":0,""viewing_time"":4496},{""page_index"":1,""viewing_time"":1768},{""page_index"":2,""viewing_time"":1511}]","7776","","","","","",""
"","","","","","html-keyboard-response","5","72875","0.0-5.0-0.0","test1_demo","1","test1","","null","<div style=""font-size:60px;"">+</div>","null","fixation","","",""
"","","","","","image-keyboard-response","6","78898","0.0-5.0-1.0","test1_demo","1","test1","","null","img/encoding_events/Event_11.jpg","null","","","",""
"","","","","","html-keyboard-response","7","78901","0.0-5.0-2.0","test1_demo","1","test1","","null","Please press the <strong><u>s</u></strong> key to continue","null","response","s","false",""
"","","","","","html-keyboard-response","8","79408","0.0-5.0-0.1","test1_demo","1","test1","","null","<div style=""font-size:60px;"">+</div>","null","fixation","","",""
"","","","","","image-keyboard-response","9","85416","0.0-5.0-1.1","test1_demo","1","test1","","null","img/encoding_events/Event_20.jpg","null","","","",""
"","","","","","html-keyboard-response","10","85421","0.0-5.0-2.1","test1_demo","1","test1","","null","Please press the <strong><u>s</u></strong> key to continue","null","response","s","false",""
"","","","","","html-keyboard-response","11","85925","0.0-5.0-0.2","test1_demo","1","test1","","null","<div style=""font-size:60px;"">+</div>","null","fixation","","",""
"","","","","","image-keyboard-response","12","91931","0.0-5.0-1.2","test1_demo","1","test1","","null","img/encoding_events/Event_6.jpg","null","","","",""
"","","","","","html-keyboard-response","13","91938","0.0-5.0-2.2","test1_demo","1","test1","","null","Please press the <strong><u>k</u></strong> key to continue","null","response","k","false",""
"","","","","","html-keyboard-response","14","92442","0.0-5.0-0.3","test1_demo","1","test1","","null","<div style=""font-size:60px;"">+</div>","null","fixation","","",""
"","","","","","image-keyboard-response","15","98446","0.0-5.0-1.3","test1_demo","1","test1","","null","img/encoding_events/Event_10.jpg","null","","","",""
"","","","","","html-keyboard-response","16","98451","0.0-5.0-2.3","test1_demo","1","test1","","null","Please press the <strong><u>d</u></strong> key to continue","null","response","d","false",""
"","","","","","html-keyboard-response","17","98953","0.0-5.0-0.4","test1_demo","1","test1","","null","<div style=""font-size:60px;"">+</div>","null","fixation","","",""
"","","","","","image-keyboard-response","18","104959","0.0-5.0-1.4","test1_demo","1","test1","","null","img/encoding_events/Event_3.jpg","null","","","",""
"","","","","","html-keyboard-response","19","104964","0.0-5.0-2.4","test1_demo","1","test1","","null","Please press the <strong><u>f</u></strong> key to continue","null","response","f","false",""
"","","","","","html-keyboard-response","20","105467","0.0-5.0-0.5","test1_demo","1","test1","","null","<div style=""font-size:60px;"">+</div>","null","fixation","","",""
"","","","","","image-keyboard-response","21","111471","0.0-5.0-1.5","test1_demo","1","test1","","null","img/encoding_events/Event_12.jpg","null","","","",""
"","","","","","html-keyboard-response","22","113362","0.0-5.0-2.5","test1_demo","1","test1","","1890","Please press the <strong><u>k</u></strong> key to continue","k","response","k","true",""
"","","","","","html-keyboard-response","23","113867","0.0-5.0-0.6","test1_demo","1","test1","","null","<div style=""font-size:60px;"">+</div>","null","fixation","","",""
"","","","","","image-keyboard-response","24","119872","0.0-5.0-1.6","test1_demo","1","test1","","null","img/encoding_events/Event_2.jpg","null","","","",""
"","","","","","html-keyboard-response","25","119874","0.0-5.0-2.6","test1_demo","1","test1","","null","Please press the <strong><u>d</u></strong> key to continue","null","response","d","false",""
"","","","","","html-keyboard-response","26","120378","0.0-5.0-0.7","test1_demo","1","test1","","null","<div style=""font-size:60px;"">+</div>","null","fixation","","",""
"","","","","","image-keyboard-response","27","126381","0.0-5.0-1.7","test1_demo","1","test1","","null","img/encoding_events/Event_4.jpg","null","","","",""
"","","","","","html-keyboard-response","28","126386","0.0-5.0-2.7","test1_demo","1","test1","","null","Please press the <strong><u>a</u></strong> key to continue","null","response","a","false",""
"","","","","","html-keyboard-response","29","126890","0.0-5.0-0.8","test1_demo","1","test1","","null","<div style=""font-size:60px;"">+</div>","null","fixation","","",""
"","","","","","image-keyboard-response","30","132904","0.0-5.0-1.8","test1_demo","1","test1","","null","img/encoding_events/Event_24.jpg","null","","","",""
"","","","","","html-keyboard-response","31","134362","0.0-5.0-2.8","test1_demo","1","test1","","1457","Please press the <strong><u>d</u></strong> key to continue","d","response","d","true",""
"","","","","","html-keyboard-response","32","134865","0.0-5.0-0.9","test1_demo","1","test1","","null","<div style=""font-size:60px;"">+</div>","null","fixation","","",""
"","","","","","image-keyboard-response","33","140871","0.0-5.0-1.9","test1_demo","1","test1","","null","img/encoding_events/Event_1.jpg","null","","","",""
"","","","","","html-keyboard-response","34","140874","0.0-5.0-2.9","test1_demo","1","test1","","null","Please press the <strong><u>a</u></strong> key to continue","null","response","a","false",""
"","","","","","html-keyboard-response","35","141375","0.0-5.0-0.10","test1_demo","1","test1","","null","<div style=""font-size:60px;"">+</div>","null","fixation","","",""
"","","","","","image-keyboard-response","36","147383","0.0-5.0-1.10","test1_demo","1","test1","","null","img/encoding_events/Event_15.jpg","null","","","",""
"","","","","","html-keyboard-response","37","147388","0.0-5.0-2.10","test1_demo","1","test1","","null","Please press the <strong><u>a</u></strong> key to continue","null","response","a","false",""
"","","","","","html-keyboard-response","38","147889","0.0-5.0-0.11","test1_demo","1","test1","","null","<div style=""font-size:60px;"">+</div>","null","fixation","","",""
"","","","","","image-keyboard-response","39","153898","0.0-5.0-1.11","test1_demo","1","test1","","null","img/encoding_events/Event_17.jpg","null","","","",""
"","","","","","html-keyboard-response","40","153903","0.0-5.0-2.11","test1_demo","1","test1","","null","Please press the <strong><u>f</u></strong> key to continue","null","response","f","false",""
"","","","","","html-keyboard-response","41","154408","0.0-5.0-0.12","test1_demo","1","test1","","null","<div style=""font-size:60px;"">+</div>","null","fixation","","",""
"","","","","","image-keyboard-response","42","160413","0.0-5.0-1.12","test1_demo","1","test1","","null","img/encoding_events/Event_16.jpg","null","","","",""
"","","","","","html-keyboard-response","43","160418","0.0-5.0-2.12","test1_demo","1","test1","","null","Please press the <strong><u>j</u></strong> key to continue","null","response","j","false",""
"","","","","","html-keyboard-response","44","160923","0.0-5.0-0.13","test1_demo","1","test1","","null","<div style=""font-size:60px;"">+</div>","null","fixation","","",""
"","","","","","image-keyboard-response","45","166930","0.0-5.0-1.13","test1_demo","1","test1","","null","img/encoding_events/Event_7.jpg","null","","","",""
"","","","","","html-keyboard-response","46","166937","0.0-5.0-2.13","test1_demo","1","test1","","null","Please press the <strong><u>k</u></strong> key to continue","null","response","k","false",""
"","","","","","html-keyboard-response","47","167442","0.0-5.0-0.14","test1_demo","1","test1","","null","<div style=""font-size:60px;"">+</div>","null","fixation","","",""
"","","","","","image-keyboard-response","48","173449","0.0-5.0-1.14","test1_demo","1","test1","","null","img/encoding_events/Event_13.jpg","null","","","",""
"","","","","","html-keyboard-response","49","173455","0.0-5.0-2.14","test1_demo","1","test1","","null","Please press the <strong><u>k</u></strong> key to continue","null","response","k","false",""
"","","","","","html-keyboard-response","50","173958","0.0-5.0-0.15","test1_demo","1","test1","","null","<div style=""font-size:60px;"">+</div>","null","fixation","","",""
"","","","","","image-keyboard-response","51","179964","0.0-5.0-1.15","test1_demo","1","test1","","null","img/encoding_events/Event_8.jpg","null","","","",""
"","","","","","html-keyboard-response","52","179970","0.0-5.0-2.15","test1_demo","1","test1","","null","Please press the <strong><u>k</u></strong> key to continue","null","response","k","false",""
"","","","","","html-keyboard-response","53","180474","0.0-5.0-0.16","test1_demo","1","test1","","null","<div style=""font-size:60px;"">+</div>","null","fixation","","",""
"","","","","","image-keyboard-response","54","186477","0.0-5.0-1.16","test1_demo","1","test1","","null","img/encoding_events/Event_21.jpg","null","","","",""
"","","","","","html-keyboard-response","55","186482","0.0-5.0-2.16","test1_demo","1","test1","","null","Please press the <strong><u>k</u></strong> key to continue","null","response","k","false",""
"","","","","","html-keyboard-response","56","186989","0.0-5.0-0.17","test1_demo","1","test1","","null","<div style=""font-size:60px;"">+</div>","null","fixation","","",""
"","","","","","image-keyboard-response","57","192996","0.0-5.0-1.17","test1_demo","1","test1","","null","img/encoding_events/Event_14.jpg","null","","","",""
"","","","","","html-keyboard-response","58","193001","0.0-5.0-2.17","test1_demo","1","test1","","null","Please press the <strong><u>d</u></strong> key to continue","null","response","d","false",""
"","","","","","html-keyboard-response","59","193504","0.0-5.0-0.18","test1_demo","1","test1","","null","<div style=""font-size:60px;"">+</div>","null","fixation","","",""
"","","","","","image-keyboard-response","60","199512","0.0-5.0-1.18","test1_demo","1","test1","","null","img/encoding_events/Event_18.jpg","null","","","",""
"","","","","","html-keyboard-response","61","199518","0.0-5.0-2.18","test1_demo","1","test1","","null","Please press the <strong><u>s</u></strong> key to continue","null","response","s","false",""
"","","","","","html-keyboard-response","62","200021","0.0-5.0-0.19","test1_demo","1","test1","","null","<div style=""font-size:60px;"">+</div>","null","fixation","","",""
"","","","","","image-keyboard-response","63","206029","0.0-5.0-1.19","test1_demo","1","test1","","null","img/encoding_events/Event_22.jpg","null","","","",""
"","","","","","html-keyboard-response","64","206037","0.0-5.0-2.19","test1_demo","1","test1","","null","Please press the <strong><u>j</u></strong> key to continue","null","response","j","false",""
"","","","","","html-keyboard-response","65","206540","0.0-5.0-0.20","test1_demo","1","test1","","null","<div style=""font-size:60px;"">+</div>","null","fixation","","",""
"","","","","","image-keyboard-response","66","212548","0.0-5.0-1.20","test1_demo","1","test1","","null","img/encoding_events/Event_9.jpg","null","","","",""
"","","","","","html-keyboard-response","67","212554","0.0-5.0-2.20","test1_demo","1","test1","","null","Please press the <strong><u>s</u></strong> key to continue","null","response","s","false",""
"","","","","","html-keyboard-response","68","213060","0.0-5.0-0.21","test1_demo","1","test1","","null","<div style=""font-size:60px;"">+</div>","null","fixation","","",""
"","","","","","image-keyboard-response","69","219068","0.0-5.0-1.21","test1_demo","1","test1","","null","img/encoding_events/Event_19.jpg","null","","","",""
"","","","","","html-keyboard-response","70","219073","0.0-5.0-2.21","test1_demo","1","test1","","null","Please press the <strong><u>j</u></strong> key to continue","null","response","j","false",""
"","","","","","html-keyboard-response","71","219578","0.0-5.0-0.22","test1_demo","1","test1","","null","<div style=""font-size:60px;"">+</div>","null","fixation","","",""
"","","","","","image-keyboard-response","72","225585","0.0-5.0-1.22","test1_demo","1","test1","","null","img/encoding_events/Event_5.jpg","null","","","",""
"","","","","","html-keyboard-response","73","225591","0.0-5.0-2.22","test1_demo","1","test1","","null","Please press the <strong><u>k</u></strong> key to continue","null","response","k","false",""
"","","","","","html-keyboard-response","74","226095","0.0-5.0-0.23","test1_demo","1","test1","","null","<div style=""font-size:60px;"">+</div>","null","fixation","","",""
"","","","","","image-keyboard-response","75","232103","0.0-5.0-1.23","test1_demo","1","test1","","null","img/encoding_events/Event_23.jpg","null","","","",""
"","","","","","html-keyboard-response","76","232109","0.0-5.0-2.23","test1_demo","1","test1","","null","Please press the <strong><u>f</u></strong> key to continue","null","response","f","false",""
"","","","","","instructions","77","245117","0.0-6.0","test1_demo","1","test1","[{""page_index"":0,""viewing_time"":2318},{""page_index"":1,""viewing_time"":1272},{""page_index"":2,""viewing_time"":1422},{""page_index"":3,""viewing_time"":1999},{""page_index"":4,""viewing_time"":2956},{""page_index"":5,""viewing_time"":1953},{""page_index"":6,""viewing_time"":1093}]","13013","","","","","",""
"","","","","","image-keyboard-response","78","251846","0.0-7.0-0.0-0.0","test1_demo","1","test1","","4225","img/testing_events/Cb/Test_Cb_Event_4.jpg","e","response","e","true","Cb"
"","","","","","image-keyboard-response","79","254109","0.0-7.0-0.0-0.1","test1_demo","1","test1","","2261","img/testing_events/Cb/Test_Cb_Event_21.jpg","u","response","u","true","Cb"
"","","","","","image-keyboard-response","80","258682","0.0-7.0-0.0-0.2","test1_demo","1","test1","","4573","img/testing_events/Cb/Test_Cb_Event_6.jpg","c","response","c","true","Cb"
"","","","","","image-keyboard-response","81","260860","0.0-7.0-0.0-0.3","test1_demo","1","test1","","2177","img/testing_events/Cb/Test_Cb_Event_1.jpg","u","response","u","true","Cb"
"","","","","","image-keyboard-response","82","268335","0.0-7.0-0.0-0.4","test1_demo","1","test1","","7476","img/testing_events/Cb/Test_Cb_Event_10.jpg","u","response","c","false","Cb"
"","","","","","image-keyboard-response","83","271091","0.0-7.0-0.0-0.5","test1_demo","1","test1","","2755","img/testing_events/Cb/Test_Cb_Event_2.jpg","e","response","c","false","Cb"
"","","","","","image-keyboard-response","84","273271","0.0-7.0-0.0-0.6","test1_demo","1","test1","","2179","img/testing_events/Cb/Test_Cb_Event_5.jpg","u","response","u","true","Cb"
"","","","","","image-keyboard-response","85","276257","0.0-7.0-0.0-0.7","test1_demo","1","test1","","2984","img/testing_events/Cb/Test_Cb_Event_24.jpg","e","response","e","true","Cb"
"","","","","","image-keyboard-response","86","278212","0.0-7.0-0.0-0.8","test1_demo","1","test1","","1954","img/testing_events/Cb/Test_Cb_Event_22.jpg","c","response","c","true","Cb"
"","","","","","image-keyboard-response","87","279484","0.0-7.0-0.0-0.9","test1_demo","1","test1","","1271","img/testing_events/Cb/Test_Cb_Event_8.jpg","e","response","e","true","Cb"
"","","","","","image-keyboard-response","88","281984","0.0-7.0-0.0-0.10","test1_demo","1","test1","","2499","img/testing_events/Cb/Test_Cb_Event_11.jpg","n","response","n","true","Cb"
"","","","","","image-keyboard-response","89","283391","0.0-7.0-0.0-0.11","test1_demo","1","test1","","1405","img/testing_events/Cb/Test_Cb_Event_20.jpg","e","response","e","true","Cb"
"","","","","","image-keyboard-response","90","285346","0.0-7.0-0.0-0.12","test1_demo","1","test1","","1954","img/testing_events/Cb/Test_Cb_Event_14.jpg","c","response","c","true","Cb"
"","","","","","image-keyboard-response","91","286889","0.0-7.0-0.0-0.13","test1_demo","1","test1","","1541","img/testing_events/Cb/Test_Cb_Event_3.jpg","n","response","n","true","Cb"
"","","","","","image-keyboard-response","92","291765","0.0-7.0-0.0-0.14","test1_demo","1","test1","","4875","img/testing_events/Cb/Test_Cb_Event_12.jpg","e","response","e","true","Cb"
"","","","","","image-keyboard-response","93","292871","0.0-7.0-0.0-0.15","test1_demo","1","test1","","1104","img/testing_events/Cb/Test_Cb_Event_16.jpg","e","response","e","true","Cb"
"","","","","","image-keyboard-response","94","294443","0.0-7.0-0.0-0.16","test1_demo","1","test1","","1572","img/testing_events/Cb/Test_Cb_Event_13.jpg","u","response","u","true","Cb"
"","","","","","image-keyboard-response","95","297313","0.0-7.0-0.0-0.17","test1_demo","1","test1","","2869","img/testing_events/Cb/Test_Cb_Event_23.jpg","n","response","n","true","Cb"
"","","","","","image-keyboard-response","96","298811","0.0-7.0-0.0-0.18","test1_demo","1","test1","","1497","img/testing_events/Cb/Test_Cb_Event_7.jpg","n","response","n","true","Cb"
"","","","","","image-keyboard-response","97","300933","0.0-7.0-0.0-0.19","test1_demo","1","test1","","2120","img/testing_events/Cb/Test_Cb_Event_19.jpg","n","response","n","true","Cb"
"","","","","","image-keyboard-response","98","302619","0.0-7.0-0.0-0.20","test1_demo","1","test1","","1685","img/testing_events/Cb/Test_Cb_Event_15.jpg","n","response","n","true","Cb"
"","","","","","image-keyboard-response","99","307621","0.0-7.0-0.0-0.21","test1_demo","1","test1","","5001","img/testing_events/Cb/Test_Cb_Event_9.jpg","u","response","u","true","Cb"
"","","","","","image-keyboard-response","100","309801","0.0-7.0-0.0-0.22","test1_demo","1","test1","","2179","img/testing_events/Cb/Test_Cb_Event_18.jpg","c","response","c","true","Cb"
"","","","","","image-keyboard-response","101","311567","0.0-7.0-0.0-0.23","test1_demo","1","test1","","1765","img/testing_events/Cb/Test_Cb_Event_17.jpg","u","response","u","true","Cb"
"","","","","","image-keyboard-response","102","321786","0.0-7.0-1.0-0.0","test1_demo","1","test1","","10217","img/testing_events/Ac/Test_Ac_Event_6.jpg","e","response","c","false","Ac"
"","","","","","image-keyboard-response","103","323716","0.0-7.0-1.0-0.1","test1_demo","1","test1","","1929","img/testing_events/Ac/Test_Ac_Event_3.jpg","n","response","n","true","Ac"
"","","","","","image-keyboard-response","104","326321","0.0-7.0-1.0-0.2","test1_demo","1","test1","","2604","img/testing_events/Ac/Test_Ac_Event_23.jpg","c","response","n","false","Ac"
"","","","","","image-keyboard-response","105","328957","0.0-7.0-1.0-0.3","test1_demo","1","test1","","2634","img/testing_events/Ac/Test_Ac_Event_9.jpg","u","response","u","true","Ac"
"","","","","","image-keyboard-response","106","331919","0.0-7.0-1.0-0.4","test1_demo","1","test1","","2960","img/testing_events/Ac/Test_Ac_Event_2.jpg","n","response","c","false","Ac"
"","","","","","image-keyboard-response","107","335567","0.0-7.0-1.0-0.5","test1_demo","1","test1","","3647","img/testing_events/Ac/Test_Ac_Event_15.jpg","n","response","n","true","Ac"
"","","","","","image-keyboard-response","108","339301","0.0-7.0-1.0-0.6","test1_demo","1","test1","","3733","img/testing_events/Ac/Test_Ac_Event_12.jpg","e","response","e","true","Ac"
"","","","","","image-keyboard-response","109","342078","0.0-7.0-1.0-0.7","test1_demo","1","test1","","2775","img/testing_events/Ac/Test_Ac_Event_1.jpg","u","response","u","true","Ac"
"","","","","","image-keyboard-response","110","344190","0.0-7.0-1.0-0.8","test1_demo","1","test1","","2112","img/testing_events/Ac/Test_Ac_Event_17.jpg","u","response","u","true","Ac"
"","","","","","image-keyboard-response","111","345978","0.0-7.0-1.0-0.9","test1_demo","1","test1","","1786","img/testing_events/Ac/Test_Ac_Event_18.jpg","c","response","c","true","Ac"
"","","","","","image-keyboard-response","112","349301","0.0-7.0-1.0-0.10","test1_demo","1","test1","","3322","img/testing_events/Ac/Test_Ac_Event_4.jpg","e","response","e","true","Ac"
"","","","","","image-keyboard-response","113","352272","0.0-7.0-1.0-0.11","test1_demo","1","test1","","2969","img/testing_events/Ac/Test_Ac_Event_10.jpg","c","response","c","true","Ac"
"","","","","","image-keyboard-response","114","353925","0.0-7.0-1.0-0.12","test1_demo","1","test1","","1652","img/testing_events/Ac/Test_Ac_Event_19.jpg","n","response","n","true","Ac"
"","","","","","image-keyboard-response","115","355254","0.0-7.0-1.0-0.13","test1_demo","1","test1","","1328","img/testing_events/Ac/Test_Ac_Event_16.jpg","e","response","e","true","Ac"
"","","","","","image-keyboard-response","116","357345","0.0-7.0-1.0-0.14","test1_demo","1","test1","","2089","img/testing_events/Ac/Test_Ac_Event_13.jpg","u","response","u","true","Ac"
"","","","","","image-keyboard-response","117","360503","0.0-7.0-1.0-0.15","test1_demo","1","test1","","3157","img/testing_events/Ac/Test_Ac_Event_24.jpg","e","response","e","true","Ac"
"","","","","","image-keyboard-response","118","362230","0.0-7.0-1.0-0.16","test1_demo","1","test1","","1725","img/testing_events/Ac/Test_Ac_Event_22.jpg","c","response","c","true","Ac"
"","","","","","image-keyboard-response","119","363690","0.0-7.0-1.0-0.17","test1_demo","1","test1","","1459","img/testing_events/Ac/Test_Ac_Event_20.jpg","e","response","e","true","Ac"
"","","","","","image-keyboard-response","120","365838","0.0-7.0-1.0-0.18","test1_demo","1","test1","","2147","img/testing_events/Ac/Test_Ac_Event_11.jpg","n","response","n","true","Ac"
"","","","","","image-keyboard-response","121","367878","0.0-7.0-1.0-0.19","test1_demo","1","test1","","2038","img/testing_events/Ac/Test_Ac_Event_21.jpg","u","response","u","true","Ac"
"","","","","","image-keyboard-response","122","370576","0.0-7.0-1.0-0.20","test1_demo","1","test1","","2697","img/testing_events/Ac/Test_Ac_Event_7.jpg","c","response","n","false","Ac"
"","","","","","image-keyboard-response","123","371746","0.0-7.0-1.0-0.21","test1_demo","1","test1","","1169","img/testing_events/Ac/Test_Ac_Event_8.jpg","e","response","e","true","Ac"
"","","","","","image-keyboard-response","124","373500","0.0-7.0-1.0-0.22","test1_demo","1","test1","","1752","img/testing_events/Ac/Test_Ac_Event_5.jpg","u","response","u","true","Ac"
"","","","","","image-keyboard-response","125","376135","0.0-7.0-1.0-0.23","test1_demo","1","test1","","2634","img/testing_events/Ac/Test_Ac_Event_14.jpg","c","response","c","true","Ac"
"","","","","","image-keyboard-response","126","377392","0.0-7.0-2.0-0.0","test1_demo","1","test1","","1256","img/testing_events/Bc/Test_Bc_Event_17.jpg","n","response","n","true","Bc"
"","","","","","image-keyboard-response","127","379049","0.0-7.0-2.0-0.1","test1_demo","1","test1","","1656","img/testing_events/Bc/Test_Bc_Event_22.jpg","e","response","e","true","Bc"
"","","","","","image-keyboard-response","128","380649","0.0-7.0-2.0-0.2","test1_demo","1","test1","","1598","img/testing_events/Bc/Test_Bc_Event_8.jpg","c","response","c","true","Bc"
"","","","","","image-keyboard-response","129","383073","0.0-7.0-2.0-0.3","test1_demo","1","test1","","2423","img/testing_events/Bc/Test_Bc_Event_23.jpg","u","response","u","true","Bc"
"","","","","","image-keyboard-response","130","385491","0.0-7.0-2.0-0.4","test1_demo","1","test1","","2416","img/testing_events/Bc/Test_Bc_Event_16.jpg","c","response","c","true","Bc"
"","","","","","image-keyboard-response","131","387052","0.0-7.0-2.0-0.5","test1_demo","1","test1","","1559","img/testing_events/Bc/Test_Bc_Event_19.jpg","u","response","u","true","Bc"
"","","","","","image-keyboard-response","132","392463","0.0-7.0-2.0-0.6","test1_demo","1","test1","","5410","img/testing_events/Bc/Test_Bc_Event_6.jpg","u","response","e","false","Bc"
"","","","","","image-keyboard-response","133","395284","0.0-7.0-2.0-0.7","test1_demo","1","test1","","2819","img/testing_events/Bc/Test_Bc_Event_4.jpg","c","response","c","true","Bc"
"","","","","","image-keyboard-response","134","397421","0.0-7.0-2.0-0.8","test1_demo","1","test1","","2136","img/testing_events/Bc/Test_Bc_Event_24.jpg","c","response","c","true","Bc"
"","","","","","image-keyboard-response","135","401715","0.0-7.0-2.0-0.9","test1_demo","1","test1","","4293","img/testing_events/Bc/Test_Bc_Event_10.jpg","e","response","e","true","Bc"
"","","","","","image-keyboard-response","136","403677","0.0-7.0-2.0-0.10","test1_demo","1","test1","","1960","img/testing_events/Bc/Test_Bc_Event_1.jpg","n","response","n","true","Bc"
"","","","","","image-keyboard-response","137","406023","0.0-7.0-2.0-0.11","test1_demo","1","test1","","2344","img/testing_events/Bc/Test_Bc_Event_11.jpg","u","response","u","true","Bc"
"","","","","","image-keyboard-response","138","407924","0.0-7.0-2.0-0.12","test1_demo","1","test1","","1900","img/testing_events/Bc/Test_Bc_Event_7.jpg","e","response","u","false","Bc"
"","","","","","image-keyboard-response","139","411173","0.0-7.0-2.0-0.13","test1_demo","1","test1","","3248","img/testing_events/Bc/Test_Bc_Event_20.jpg","u","response","c","false","Bc"
"","","","","","image-keyboard-response","140","413547","0.0-7.0-2.0-0.14","test1_demo","1","test1","","2372","img/testing_events/Bc/Test_Bc_Event_14.jpg","e","response","e","true","Bc"
"","","","","","image-keyboard-response","141","415806","0.0-7.0-2.0-0.15","test1_demo","1","test1","","2258","img/testing_events/Bc/Test_Bc_Event_13.jpg","n","response","n","true","Bc"
"","","","","","image-keyboard-response","142","417644","0.0-7.0-2.0-0.16","test1_demo","1","test1","","1837","img/testing_events/Bc/Test_Bc_Event_9.jpg","n","response","n","true","Bc"
"","","","","","image-keyboard-response","143","419243","0.0-7.0-2.0-0.17","test1_demo","1","test1","","1596","img/testing_events/Bc/Test_Bc_Event_15.jpg","u","response","u","true","Bc"
"","","","","","image-keyboard-response","144","421763","0.0-7.0-2.0-0.18","test1_demo","1","test1","","2519","img/testing_events/Bc/Test_Bc_Event_18.jpg","e","response","e","true","Bc"
"","","","","","image-keyboard-response","145","426087","0.0-7.0-2.0-0.19","test1_demo","1","test1","","4323","img/testing_events/Bc/Test_Bc_Event_2.jpg","e","response","e","true","Bc"
"","","","","","image-keyboard-response","146","429407","0.0-7.0-2.0-0.20","test1_demo","1","test1","","3319","img/testing_events/Bc/Test_Bc_Event_5.jpg","n","response","n","true","Bc"
"","","","","","image-keyboard-response","147","434950","0.0-7.0-2.0-0.21","test1_demo","1","test1","","5542","img/testing_events/Bc/Test_Bc_Event_12.jpg","c","response","c","true","Bc"
"","","","","","image-keyboard-response","148","436507","0.0-7.0-2.0-0.22","test1_demo","1","test1","","1555","img/testing_events/Bc/Test_Bc_Event_3.jpg","u","response","u","true","Bc"
"","","","","","image-keyboard-response","149","439890","0.0-7.0-2.0-0.23","test1_demo","1","test1","","3382","img/testing_events/Bc/Test_Bc_Event_21.jpg","n","response","n","true","Bc"
"","","","","","image-keyboard-response","150","444742","0.0-7.0-3.0-0.0","test1_demo","1","test1","","4851","img/testing_events/Ba/Test_Ba_Event_12.jpg","u","response","u","true","Ba"
"","","","","","image-keyboard-response","151","447696","0.0-7.0-3.0-0.1","test1_demo","1","test1","","2953","img/testing_events/Ba/Test_Ba_Event_18.jpg","n","response","n","true","Ba"
"","","","","","image-keyboard-response","152","450943","0.0-7.0-3.0-0.2","test1_demo","1","test1","","3245","img/testing_events/Ba/Test_Ba_Event_5.jpg","c","response","c","true","Ba"
"","","","","","image-keyboard-response","153","453048","0.0-7.0-3.0-0.3","test1_demo","1","test1","","2104","img/testing_events/Ba/Test_Ba_Event_17.jpg","c","response","c","true","Ba"
"","","","","","image-keyboard-response","154","454759","0.0-7.0-3.0-0.4","test1_demo","1","test1","","1710","img/testing_events/Ba/Test_Ba_Event_3.jpg","e","response","e","true","Ba"
"","","","","","image-keyboard-response","155","456048","0.0-7.0-3.0-0.5","test1_demo","1","test1","","1287","img/testing_events/Ba/Test_Ba_Event_19.jpg","e","response","e","true","Ba"
"","","","","","image-keyboard-response","156","459394","0.0-7.0-3.0-0.6","test1_demo","1","test1","","3345","img/testing_events/Ba/Test_Ba_Event_16.jpg","u","response","u","true","Ba"
"","","","","","image-keyboard-response","157","462871","0.0-7.0-3.0-0.7","test1_demo","1","test1","","3475","img/testing_events/Ba/Test_Ba_Event_11.jpg","e","response","e","true","Ba"
"","","","","","image-keyboard-response","158","466063","0.0-7.0-3.0-0.8","test1_demo","1","test1","","3191","img/testing_events/Ba/Test_Ba_Event_4.jpg","u","response","u","true","Ba"
"","","","","","image-keyboard-response","159","468606","0.0-7.0-3.0-0.9","test1_demo","1","test1","","2541","img/testing_events/Ba/Test_Ba_Event_21.jpg","c","response","c","true","Ba"
"","","","","","image-keyboard-response","160","475281","0.0-7.0-3.0-0.10","test1_demo","1","test1","","6673","img/testing_events/Ba/Test_Ba_Event_13.jpg","c","response","c","true","Ba"
"","","","","","image-keyboard-response","161","481727","0.0-7.0-3.0-0.11","test1_demo","1","test1","","6445","img/testing_events/Ba/Test_Ba_Event_6.jpg","u","response","n","false","Ba"
"","","","","","image-keyboard-response","162","485890","0.0-7.0-3.0-0.12","test1_demo","1","test1","","4162","img/testing_events/Ba/Test_Ba_Event_20.jpg","u","response","u","true","Ba"
"","","","","","image-keyboard-response","163","489256","0.0-7.0-3.0-0.13","test1_demo","1","test1","","3365","img/testing_events/Ba/Test_Ba_Event_2.jpg","u","response","n","false","Ba"
"","","","","","image-keyboard-response","164","493767","0.0-7.0-3.0-0.14","test1_demo","1","test1","","4509","img/testing_events/Ba/Test_Ba_Event_9.jpg","c","response","c","true","Ba"
"","","","","","image-keyboard-response","165","496438","0.0-7.0-3.0-0.15","test1_demo","1","test1","","2670","img/testing_events/Ba/Test_Ba_Event_10.jpg","n","response","n","true","Ba"
"","","","","","image-keyboard-response","166","499837","0.0-7.0-3.0-0.16","test1_demo","1","test1","","3398","img/testing_events/Ba/Test_Ba_Event_24.jpg","u","response","u","true","Ba"
"","","","","","image-keyboard-response","167","502484","0.0-7.0-3.0-0.17","test1_demo","1","test1","","2646","img/testing_events/Ba/Test_Ba_Event_1.jpg","c","response","c","true","Ba"
"","","","","","image-keyboard-response","168","506277","0.0-7.0-3.0-0.18","test1_demo","1","test1","","3791","img/testing_events/Ba/Test_Ba_Event_23.jpg","e","response","e","true","Ba"
"","","","","","image-keyboard-response","169","510391","0.0-7.0-3.0-0.19","test1_demo","1","test1","","4112","img/testing_events/Ba/Test_Ba_Event_22.jpg","n","response","n","true","Ba"
"","","","","","image-keyboard-response","170","511817","0.0-7.0-3.0-0.20","test1_demo","1","test1","","1425","img/testing_events/Ba/Test_Ba_Event_15.jpg","e","response","e","true","Ba"
"","","","","","image-keyboard-response","171","513652","0.0-7.0-3.0-0.21","test1_demo","1","test1","","1833","img/testing_events/Ba/Test_Ba_Event_8.jpg","u","response","u","true","Ba"
"","","","","","image-keyboard-response","172","516895","0.0-7.0-3.0-0.22","test1_demo","1","test1","","3242","img/testing_events/Ba/Test_Ba_Event_7.jpg","e","response","e","true","Ba"
"","","","","","image-keyboard-response","173","519243","0.0-7.0-3.0-0.23","test1_demo","1","test1","","2347","img/testing_events/Ba/Test_Ba_Event_14.jpg","n","response","n","true","Ba"
"","","","","","image-keyboard-response","174","520770","0.0-7.0-4.0-0.0","test1_demo","1","test1","","1526","img/testing_events/Ca/Test_Ca_Event_15.jpg","c","response","c","true","Ca"
"","","","","","image-keyboard-response","175","527509","0.0-7.0-4.0-0.1","test1_demo","1","test1","","6737","img/testing_events/Ca/Test_Ca_Event_6.jpg","n","response","u","false","Ca"
"","","","","","image-keyboard-response","176","530818","0.0-7.0-4.0-0.2","test1_demo","1","test1","","3308","img/testing_events/Ca/Test_Ca_Event_20.jpg","n","response","n","true","Ca"
"","","","","","image-keyboard-response","177","533720","0.0-7.0-4.0-0.3","test1_demo","1","test1","","2900","img/testing_events/Ca/Test_Ca_Event_23.jpg","c","response","c","true","Ca"
"","","","","","image-keyboard-response","178","536592","0.0-7.0-4.0-0.4","test1_demo","1","test1","","2870","img/testing_events/Ca/Test_Ca_Event_14.jpg","u","response","u","true","Ca"
"","","","","","image-keyboard-response","179","538389","0.0-7.0-4.0-0.5","test1_demo","1","test1","","1796","img/testing_events/Ca/Test_Ca_Event_13.jpg","e","response","e","true","Ca"
"","","","","","image-keyboard-response","180","540125","0.0-7.0-4.0-0.6","test1_demo","1","test1","","1735","img/testing_events/Ca/Test_Ca_Event_21.jpg","e","response","e","true","Ca"
"","","","","","image-keyboard-response","181","541851","0.0-7.0-4.0-0.7","test1_demo","1","test1","","1724","img/testing_events/Ca/Test_Ca_Event_16.jpg","n","response","n","true","Ca"
"","","","","","image-keyboard-response","182","543769","0.0-7.0-4.0-0.8","test1_demo","1","test1","","1917","img/testing_events/Ca/Test_Ca_Event_8.jpg","n","response","n","true","Ca"
"","","","","","image-keyboard-response","183","545813","0.0-7.0-4.0-0.9","test1_demo","1","test1","","2043","img/testing_events/Ca/Test_Ca_Event_1.jpg","e","response","e","true","Ca"
"","","","","","image-keyboard-response","184","547514","0.0-7.0-4.0-0.10","test1_demo","1","test1","","1700","img/testing_events/Ca/Test_Ca_Event_17.jpg","e","response","e","true","Ca"
"","","","","","image-keyboard-response","185","549913","0.0-7.0-4.0-0.11","test1_demo","1","test1","","2398","img/testing_events/Ca/Test_Ca_Event_22.jpg","c","response","u","false","Ca"
"","","","","","image-keyboard-response","186","551471","0.0-7.0-4.0-0.12","test1_demo","1","test1","","1556","img/testing_events/Ca/Test_Ca_Event_5.jpg","e","response","e","true","Ca"
"","","","","","image-keyboard-response","187","553674","0.0-7.0-4.0-0.13","test1_demo","1","test1","","2202","img/testing_events/Ca/Test_Ca_Event_18.jpg","u","response","u","true","Ca"
"","","","","","image-keyboard-response","188","559517","0.0-7.0-4.0-0.14","test1_demo","1","test1","","5842","img/testing_events/Ca/Test_Ca_Event_12.jpg","n","response","n","true","Ca"
"","","","","","image-keyboard-response","189","562939","0.0-7.0-4.0-0.15","test1_demo","1","test1","","3421","img/testing_events/Ca/Test_Ca_Event_4.jpg","c","response","n","false","Ca"
"","","","","","image-keyboard-response","190","566428","0.0-7.0-4.0-0.16","test1_demo","1","test1","","3487","img/testing_events/Ca/Test_Ca_Event_19.jpg","c","response","c","true","Ca"
"","","","","","image-keyboard-response","191","568855","0.0-7.0-4.0-0.17","test1_demo","1","test1","","2426","img/testing_events/Ca/Test_Ca_Event_2.jpg","n","response","u","false","Ca"
"","","","","","image-keyboard-response","192","571425","0.0-7.0-4.0-0.18","test1_demo","1","test1","","2569","img/testing_events/Ca/Test_Ca_Event_24.jpg","n","response","n","true","Ca"
"","","","","","image-keyboard-response","193","573547","0.0-7.0-4.0-0.19","test1_demo","1","test1","","2121","img/testing_events/Ca/Test_Ca_Event_7.jpg","c","response","c","true","Ca"
"","","","","","image-keyboard-response","194","577374","0.0-7.0-4.0-0.20","test1_demo","1","test1","","3826","img/testing_events/Ca/Test_Ca_Event_11.jpg","c","response","c","true","Ca"
"","","","","","image-keyboard-response","195","579954","0.0-7.0-4.0-0.21","test1_demo","1","test1","","2578","img/testing_events/Ca/Test_Ca_Event_10.jpg","u","response","u","true","Ca"
"","","","","","image-keyboard-response","196","581680","0.0-7.0-4.0-0.22","test1_demo","1","test1","","1725","img/testing_events/Ca/Test_Ca_Event_9.jpg","e","response","e","true","Ca"
"","","","","","image-keyboard-response","197","584714","0.0-7.0-4.0-0.23","test1_demo","1","test1","","3033","img/testing_events/Ca/Test_Ca_Event_3.jpg","c","response","c","true","Ca"
"","","","","","image-keyboard-response","198","589486","0.0-7.0-5.0-0.0","test1_demo","1","test1","","4771","img/testing_events/Ab/Test_Ab_Event_16.jpg","n","response","n","true","Ab"
"","","","","","image-keyboard-response","199","593706","0.0-7.0-5.0-0.1","test1_demo","1","test1","","4218","img/testing_events/Ab/Test_Ab_Event_14.jpg","u","response","u","true","Ab"
"","","","","","image-keyboard-response","200","597162","0.0-7.0-5.0-0.2","test1_demo","1","test1","","3454","img/testing_events/Ab/Test_Ab_Event_22.jpg","u","response","u","true","Ab"
"","","","","","image-keyboard-response","201","599344","0.0-7.0-5.0-0.3","test1_demo","1","test1","","2180","img/testing_events/Ab/Test_Ab_Event_23.jpg","c","response","c","true","Ab"
"","","","","","image-keyboard-response","202","602038","0.0-7.0-5.0-0.4","test1_demo","1","test1","","2693","img/testing_events/Ab/Test_Ab_Event_10.jpg","u","response","u","true","Ab"
"","","","","","image-keyboard-response","203","603897","0.0-7.0-5.0-0.5","test1_demo","1","test1","","1858","img/testing_events/Ab/Test_Ab_Event_11.jpg","c","response","c","true","Ab"
"","","","","","image-keyboard-response","204","605558","0.0-7.0-5.0-0.6","test1_demo","1","test1","","1660","img/testing_events/Ab/Test_Ab_Event_1.jpg","e","response","e","true","Ab"
"","","","","","image-keyboard-response","205","606913","0.0-7.0-5.0-0.7","test1_demo","1","test1","","1354","img/testing_events/Ab/Test_Ab_Event_13.jpg","e","response","e","true","Ab"
"","","","","","image-keyboard-response","206","612630","0.0-7.0-5.0-0.8","test1_demo","1","test1","","5715","img/testing_events/Ab/Test_Ab_Event_7.jpg","c","response","c","true","Ab"
"","","","","","image-keyboard-response","207","613892","0.0-7.0-5.0-0.9","test1_demo","1","test1","","1261","img/testing_events/Ab/Test_Ab_Event_21.jpg","c","response","e","false","Ab"
"","","","","","image-keyboard-response","208","615426","0.0-7.0-5.0-0.10","test1_demo","1","test1","","1533","img/testing_events/Ab/Test_Ab_Event_3.jpg","c","response","c","true","Ab"
"","","","","","image-keyboard-response","209","617459","0.0-7.0-5.0-0.11","test1_demo","1","test1","","2032","img/testing_events/Ab/Test_Ab_Event_24.jpg","n","response","n","true","Ab"
"","","","","","image-keyboard-response","210","620640","0.0-7.0-5.0-0.12","test1_demo","1","test1","","3179","img/testing_events/Ab/Test_Ab_Event_8.jpg","n","response","n","true","Ab"
"","","","","","image-keyboard-response","211","626640","0.0-7.0-5.0-0.13","test1_demo","1","test1","","5999","img/testing_events/Ab/Test_Ab_Event_6.jpg","n","response","u","false","Ab"
"","","","","","image-keyboard-response","212","628516","0.0-7.0-5.0-0.14","test1_demo","1","test1","","1875","img/testing_events/Ab/Test_Ab_Event_2.jpg","n","response","u","false","Ab"
"","","","","","image-keyboard-response","213","629895","0.0-7.0-5.0-0.15","test1_demo","1","test1","","1378","img/testing_events/Ab/Test_Ab_Event_12.jpg","n","response","n","true","Ab"
"","","","","","image-keyboard-response","214","631819","0.0-7.0-5.0-0.16","test1_demo","1","test1","","1923","img/testing_events/Ab/Test_Ab_Event_5.jpg","e","response","e","true","Ab"
"","","","","","image-keyboard-response","215","633480","0.0-7.0-5.0-0.17","test1_demo","1","test1","","1660","img/testing_events/Ab/Test_Ab_Event_18.jpg","u","response","u","true","Ab"
"","","","","","image-keyboard-response","216","637288","0.0-7.0-5.0-0.18","test1_demo","1","test1","","3806","img/testing_events/Ab/Test_Ab_Event_4.jpg","n","response","n","true","Ab"
"","","","","","image-keyboard-response","217","639018","0.0-7.0-5.0-0.19","test1_demo","1","test1","","1728","img/testing_events/Ab/Test_Ab_Event_9.jpg","u","response","e","false","Ab"
"","","","","","image-keyboard-response","218","640204","0.0-7.0-5.0-0.20","test1_demo","1","test1","","1185","img/testing_events/Ab/Test_Ab_Event_15.jpg","c","response","c","true","Ab"
"","","","","","image-keyboard-response","219","641537","0.0-7.0-5.0-0.21","test1_demo","1","test1","","1332","img/testing_events/Ab/Test_Ab_Event_17.jpg","e","response","e","true","Ab"
"","","","","","image-keyboard-response","220","643411","0.0-7.0-5.0-0.22","test1_demo","1","test1","","1873","img/testing_events/Ab/Test_Ab_Event_20.jpg","n","response","n","true","Ab"
"","","","","","image-keyboard-response","221","646526","0.0-7.0-5.0-0.23","test1_demo","1","test1","","3112","img/testing_events/Ab/Test_Ab_Event_19.jpg","c","response","c","true","Ab"
"","","","","","survey-text","222","653851","0.0-8.0","test1_demo","1","test1","","7301","","{""Q0"":""no"",""Q1"":""no"",""Q2"":""no""}","","","",""
"","","","","","survey-html-form","223","672169","0.0-9.0","test1_demo","1","test1","","18315","","{""Gender"":""Female"",""Age"":""24"",""ColorBlind"":""No"",""Education"":""Bachelors degree"",""Income"":""$50,000-$74,999"",""Race"":""Asian/Pacific Islander"",""Fluent"":""Yes"",""AgeEnglish"":""0"",""Country"":""USA""}","","","",""
"true","","","","","fullscreen","224","672172","0.0-10.0","test1_demo","1","test1","","","","","","","",""
