"success","timeout","failed_images","failed_audio","failed_video","trial_type","trial_index","time_elapsed","internal_node_id","subject_id","study_id","session_id","view_history","rt","stimulus","response","task","correct_response","correct","retrieval_group"
"true","false","[]","[]","[]","preload","0","222","0.0-0.0","test2_demo","1","test2","","","","","","","",""
"true","","","","","fullscreen","1","3267","0.0-1.0","test2_demo","1","test2","","","","","","","",""
"","","","","","instructions","2","4131","0.0-2.0","test2_demo","1","test2","[{""page_index"":0,""viewing_time"":863}]","863","","","","","",""
"","","","","","html-keyboard-response","3","5707","0.0-3.0","test2_demo","1","test2","","1574","Welcome to the experiment. <br /><br />This experiment will take about 20 minutes. Please complete all in one sitting. <br /><br />For this study, <strong>please use</strong> a laptop or desktop computer (not a mobile phone or tablet). Also, please use either <u>Chrome or Firefox</u>. <br /><br />Once you begin, <strong>DO NOT</strong> refresh the browser, as the experiment will reset and you will lose your progress. <br /><br />Press the <strong class=""upperline"">B</strong> key on your keyboard to begin.","b","","","",""
"","","","","","instructions","4","16356","0.0-4.0","test2_demo","1","test2","[{""page_index"":0,""viewing_time"":2572},{""page_index"":1,""viewing_time"":1364},{""page_index"":2,""viewing_time"":1308},{""page_index"":1,""viewing_time"":2655},{""page_index"":2,""viewing_time"":1747}]","9645","","","","","",""
"","","","","","html-keyboard-response","5","19364","0.0-5.0-0.0","test2_demo","1","test2","","null","<div style=""font-size:60px;"">+</div>","null","fixation","","",""
"","","","","","image-keyboard-response","6","25390","0.0-5.0-1.0","test2_demo","1","test2","","null","img/encoding_events/Event_17.jpg","null","","","",""
"","","","","","html-keyboard-response","7","25393","0.0-5.0-2.0","test2_demo","1","test2","","null","Please press the <strong><u>f</u></strong> key to continue","null","response","f","false",""
"","","","","","html-keyboard-response","8","25899","0.0-5.0-0.1","test2_demo","1","test2","","null","<div style=""font-size:60px;"">+</div>","null","fixation","","",""
"","","","","","image-keyboard-response","9","31905","0.0-5.0-1.1","test2_demo","1","test2","","null","img/encoding_events/Event_5.jpg","null","","","",""
"","","","","","html-keyboard-response","10","31911","0.0-5.0-2.1","test2_demo","1","test2","","null","Please press the <strong><u>s</u></strong> key to continue","null","response","s","false",""
"","","","","","html-keyboard-response","11","32413","0.0-5.0-0.2","test2_demo","1","test2","","null","<div style=""font-size:60px;"">+</div>","null","fixation","","",""
"","","","","","image-keyboard-response","12","38421","0.0-5.0-1.2","test2_demo","1","test2","","null","img/encoding_events/Event_4.jpg","null","","","",""
"","","","","","html-keyboard-response","13","38427","0.0-5.0-2.2","test2_demo","1","test2","","null","Please press the <strong><u>k</u></strong> key to continue","null","response","k","false",""
"","","","","","html-keyboard-response","14","38930","0.0-5.0-0.3","test2_demo","1","test2","","null","<div style=""font-size:60px;"">+</div>","null","fixation","","",""
"","","","","","image-keyboard-response","15","44937","0.0-5.0-1.3","test2_demo","1","test2","","null","img/encoding_events/Event_1.jpg","null","","","",""
"","","","","","html-keyboard-response","16","44943","0.0-5.0-2.3","test2_demo","1","test2","","null","Please press the <strong><u>k</u></strong> key to continue","null","response","k","false",""
"","","","","","html-keyboard-response","17","45445","0.0-5.0-0.4","test2_demo","1","test2","","null","<div style=""font-size:60px;"">+</div>","null","fixation","","",""
"","","","","","image-keyboard-response","18","51453","0.0-5.0-1.4","test2_demo","1","test2","","null","img/encoding_events/Event_18.jpg","null","","","",""
"","","","","","html-keyboard-response","19","51458","0.0-5.0-2.4","test2_demo","1","test2","","null","Please press the <strong><u>k</u></strong> key to continue","null","response","k","false",""
"","","","","","html-keyboard-response","20","51962","0.0-5.0-0.5","test2_demo","1","test2","","null","<div style=""font-size:60px;"">+</div>","null","fixation","","",""
"","","","","","image-keyboard-response","21","57967","0.0-5.0-1.5","test2_demo","1","test2","","null","img/encoding_events/Event_8.jpg","null","","","",""
"","","","","","html-keyboard-response","22","57974","0.0-5.0-2.5","test2_demo","1","test2","","null","Please press the <strong><u>k</u></strong> key to continue","null","response","k","false",""
"","","","","","html-keyboard-response","23","58477","0.0-5.0-0.6","test2_demo","1","test2","","null","<div style=""font-size:60px;"">+</div>","null","fixation","","",""
"","","","","","image-keyboard-response","24","64485","0.0-5.0-1.6","test2_demo","1","test2","","null","img/encoding_events/Event_13.jpg","null","","","",""
"","","","","","html-keyboard-response","25","64490","0.0-5.0-2.6","test2_demo","1","test2","","null","Please press the <strong><u>f</u></strong> key to continue","null","response","f","false",""
"","","","","","html-keyboard-response","26","64994","0.0-5.0-0.7","test2_demo","1","test2","","null","<div style=""font-size:60px;"">+</div>","null","fixation","","",""
"","","","","","image-keyboard-response","27","71002","0.0-5.0-1.7","test2_demo","1","test2","","null","img/encoding_events/Event_15.jpg","null","","","",""
"","","","","","html-keyboard-response","28","71007","0.0-5.0-2.7","test2_demo","1","test2","","null","Please press the <strong><u>j</u></strong> key to continue","null","response","j","false",""
"","","","","","html-keyboard-response","29","71509","0.0-5.0-0.8","test2_demo","1","test2","","null","<div style=""font-size:60px;"">+</div>","null","fixation","","",""
"","","","","","image-keyboard-response","30","77523","0.0-5.0-1.8","test2_demo","1","test2","","null","img/encoding_events/Event_19.jpg","null","","","",""
"","","","","","html-keyboard-response","31","77529","0.0-5.0-2.8","test2_demo","1","test2","","null","Please press the <strong><u>d</u></strong> key to continue","null","response","d","false",""
"","","","","","html-keyboard-response","32","78031","0.0-5.0-0.9","test2_demo","1","test2","","null","<div style=""font-size:60px;"">+</div>","null","fixation","","",""
"","","","","","image-keyboard-response","33","84038","0.0-5.0-1.9","test2_demo","1","test2","","null","img/encoding_events/Event_11.jpg","null","","","",""
"","","","","","html-keyboard-response","34","84043","0.0-5.0-2.9","test2_demo","1","test2","","null","Please press the <strong><u>j</u></strong> key to continue","null","response","j","false",""
"","","","","","html-keyboard-response","35","84547","0.0-5.0-0.10","test2_demo","1","test2","","null","<div style=""font-size:60px;"">+</div>","null","fixation","","",""
"","","","","","image-keyboard-response","36","90555","0.0-5.0-1.10","test2_demo","1","test2","","null","img/encoding_events/Event_23.jpg","null","","","",""
"","","","","","html-keyboard-response","37","90561","0.0-5.0-2.10","test2_demo","1","test2","","null","Please press the <strong><u>s</u></strong> key to continue","null","response","s","false",""
"","","","","","html-keyboard-response","38","91063","0.0-5.0-0.11","test2_demo","1","test2","","null","<div style=""font-size:60px;"">+</div>","null","fixation","","",""
"","","","","","image-keyboard-response","39","97071","0.0-5.0-1.11","test2_demo","1","test2","","null","img/encoding_events/Event_2.jpg","null","","","",""
"","","","","","html-keyboard-response","40","97077","0.0-5.0-2.11","test2_demo","1","test2","","null","Please press the <strong><u>f</u></strong> key to continue","null","response","f","false",""
"","","","","","html-keyboard-response","41","97580","0.0-5.0-0.12","test2_demo","1","test2","","null","<div style=""font-size:60px;"">+</div>","null","fixation","","",""
"","","","","","image-keyboard-response","42","103585","0.0-5.0-1.12","test2_demo","1","test2","","null","img/encoding_events/Event_9.jpg","null","","","",""
"","","","","","html-keyboard-response","43","103591","0.0-5.0-2.12","test2_demo","1","test2","","null","Please press the <strong><u>d</u></strong> key to continue","null","response","d","false",""
"","","","","","html-keyboard-response","44","104092","0.0-5.0-0.13","test2_demo","1","test2","","null","<div style=""font-size:60px;"">+</div>","null","fixation","","",""
"","","","","","image-keyboard-response","45","110099","0.0-5.0-1.13","test2_demo","1","test2","","null","img/encoding_events/Event_14.jpg","null","","","",""
"","","","","","html-keyboard-response","46","110104","0.0-5.0-2.13","test2_demo","1","test2","","null","Please press the <strong><u>d</u></strong> key to continue","null","response","d","false",""
"","","","","","html-keyboard-response","47","110608","0.0-5.0-0.14","test2_demo","1","test2","","null","<div style=""font-size:60px;"">+</div>","null","fixation","","",""
"","","","","","image-keyboard-response","48","116615","0.0-5.0-1.14","test2_demo","1","test2","","null","img/encoding_events/Event_24.jpg","null","","","",""
"","","","","","html-keyboard-response","49","119267","0.0-5.0-2.14","test2_demo","1","test2","","2652","Please press the <strong><u>k</u></strong> key to continue","k","response","k","true",""
"","","","","","html-keyboard-response","50","119771","0.0-5.0-0.15","test2_demo","1","test2","","null","<div style=""font-size:60px;"">+</div>","null","fixation","","",""
"","","","","","image-keyboard-response","51","125783","0.0-5.0-1.15","test2_demo","1","test2","","null","img/encoding_events/Event_20.jpg","null","","","",""
"","","","","","html-keyboard-response","52","125786","0.0-5.0-2.15","test2_demo","1","test2","","null","Please press the <strong><u>s</u></strong> key to continue","null","response","s","false",""
"","","","","","html-keyboard-response","53","126292","0.0-5.0-0.16","test2_demo","1","test2","","null","<div style=""font-size:60px;"">+</div>","null","fixation","","",""
"","","","","","image-keyboard-response","54","132298","0.0-5.0-1.16","test2_demo","1","test2","","null","img/encoding_events/Event_21.jpg","null","","","",""
"","","","","","html-keyboard-response","55","132303","0.0-5.0-2.16","test2_demo","1","test2","","null","Please press the <strong><u>a</u></strong> key to continue","null","response","a","false",""
"","","","","","html-keyboard-response","56","132808","0.0-5.0-0.17","test2_demo","1","test2","","null","<div style=""font-size:60px;"">+</div>","null","fixation","","",""
"","","","","","image-keyboard-response","57","138814","0.0-5.0-1.17","test2_demo","1","test2","","null","img/encoding_events/Event_3.jpg","null","","","",""
"","","","","","html-keyboard-response","58","138819","0.0-5.0-2.17","test2_demo","1","test2","","null","Please press the <strong><u>a</u></strong> key to continue","null","response","a","false",""
"","","","","","html-keyboard-response","59","139323","0.0-5.0-0.18","test2_demo","1","test2","","null","<div style=""font-size:60px;"">+</div>","null","fixation","","",""
"","","","","","image-keyboard-response","60","145326","0.0-5.0-1.18","test2_demo","1","test2","","null","img/encoding_events/Event_16.jpg","null","","","",""
"","","","","","html-keyboard-response","61","145331","0.0-5.0-2.18","test2_demo","1","test2","","null","Please press the <strong><u>k</u></strong> key to continue","null","response","k","false",""
"","","","","","html-keyboard-response","62","145832","0.0-5.0-0.19","test2_demo","1","test2","","null","<div style=""font-size:60px;"">+</div>","null","fixation","","",""
"","","","","","image-keyboard-response","63","151839","0.0-5.0-1.19","test2_demo","1","test2","","null","img/encoding_events/Event_6.jpg","null","","","",""
"","","","","","html-keyboard-response","64","151844","0.0-5.0-2.19","test2_demo","1","test2","","null","Please press the <strong><u>k</u></strong> key to continue","null","response","k","false",""
"","","","","","html-keyboard-response","65","152347","0.0-5.0-0.20","test2_demo","1","test2","","null","<div style=""font-size:60px;"">+</div>","null","fixation","","",""
"","","","","","image-keyboard-response","66","158354","0.0-5.0-1.20","test2_demo","1","test2","","null","img/encoding_events/Event_22.jpg","null","","","",""
"","","","","","html-keyboard-response","67","158361","0.0-5.0-2.20","test2_demo","1","test2","","null","Please press the <strong><u>a</u></strong> key to continue","null","response","a","false",""
"","","","","","html-keyboard-response","68","158863","0.0-5.0-0.21","test2_demo","1","test2","","null","<div style=""font-size:60px;"">+</div>","null","fixation","","",""
"","","","","","image-keyboard-response","69","164871","0.0-5.0-1.21","test2_demo","1","test2","","null","img/encoding_events/Event_12.jpg","null","","","",""
"","","","","","html-keyboard-response","70","168574","0.0-5.0-2.21","test2_demo","1","test2","","3702","Please press the <strong><u>a</u></strong> key to continue","a","response","a","true",""
"","","","","","html-keyboard-response","71","169078","0.0-5.0-0.22","test2_demo","1","test2","","null","<div style=""font-size:60px;"">+</div>","null","fixation","","",""
"","","","","","image-keyboard-response","72","175090","0.0-5.0-1.22","test2_demo","1","test2","","null","img/encoding_events/Event_7.jpg","null","","","",""
"","","","","","html-keyboard-response","73","175093","0.0-5.0-2.22","test2_demo","1","test2","","null","Please press the <strong><u>a</u></strong> key to continue","null","response","a","false",""
"","","","","","html-keyboard-response","74","175599","0.0-5.0-0.23","test2_demo","1","test2","","null","<div style=""font-size:60px;"">+</div>","null","fixation","","",""
"","","","","","image-keyboard-response","75","181604","0.0-5.0-1.23","test2_demo","1","test2","","null","img/encoding_events/Event_10.jpg","null","","","",""
"","","","","","html-keyboard-response","76","181610","0.0-5.0-2.23","test2_demo","1","test2","","null","Please press the <strong><u>a</u></strong> key to continue","null","response","a","false",""
"","","","","","instructions","77","245411","0.0-6.0","test2_demo","1","test2","[{""page_index"":0,""viewing_time"":54228},{""page_index"":1,""viewing_time"":2320},{""page_index"":2,""viewing_time"":1074},{""page_index"":3,""viewing_time"":2038},{""page_index"":4,""viewing_time"":1399},{""page_index"":5,""viewing_time"":1685},{""page_index"":6,""viewing_time"":1058}]","63802","","","","","",""
"","","","","","image-keyboard-response","78","258378","0.0-7.0-0.0-0.0","test2_demo","1","test2","","10459","img/testing_events/Ab/Test_Ab_Event_6.jpg","c","response","u","false","Ab"
"","","","","","image-keyboard-response","79","260318","0.0-7.0-0.0-0.1","test2_demo","1","test2","","1939","img/testing_events/Ab/Test_Ab_Event_14.jpg","u","response","u","true","Ab"
"","","","","","image-keyboard-response","80","265777","0.0-7.0-0.0-0.2","test2_demo","1","test2","","5458","img/testing_events/Ab/Test_Ab_Event_16.jpg","n","response","n","true","Ab"
"","","","","","image-keyboard-response","81","268755","0.0-7.0-0.0-0.3","test2_demo","1","test2","","2976","img/testing_events/Ab/Test_Ab_Event_8.jpg","n","response","n","true","Ab"
"","","","","","image-keyboard-response","82","271608","0.0-7.0-0.0-0.4","test2_demo","1","test2","","2851","img/testing_events/Ab/Test_Ab_Event_7.jpg","c","response","c","true","Ab"
"","","","","","image-keyboard-response","83","273000","0.0-7.0-0.0-0.5","test2_demo","1","test2","","1390","img/testing_events/Ab/Test_Ab_Event_23.jpg","c","response","c","true","Ab"
"","","","","","image-keyboard-response","84","278128","0.0-7.0-0.0-0.6","test2_demo","1","test2","","5126","img/testing_events/Ab/Test_Ab_Event_24.jpg","n","response","n","true","Ab"
"","","","","","image-keyboard-response","85","279240","0.0-7.0-0.0-0.7","test2_demo","1","test2","","1111","img/testing_events/Ab/Test_Ab_Event_15.jpg","c","response","c","true","Ab"
"","","","","","image-keyboard-response","86","281675","0.0-7.0-0.0-0.8","test2_demo","1","test2","","2433","img/testing_events/Ab/Test_Ab_Event_20.jpg","n","response","n","true","Ab"
"","","","","","image-keyboard-response","87","290950","0.0-7.0-0.0-0.9","test2_demo","1","test2","","9274","img/testing_events/Ab/Test_Ab_Event_22.jpg","u","response","u","true","Ab"
"","","","","","image-keyboard-response","88","297900","0.0-7.0-0.0-0.10","test2_demo","1","test2","","6948","img/testing_events/Ab/Test_Ab_Event_13.jpg","e","response","e","true","Ab"
"","","","","","image-keyboard-response","89","304403","0.0-7.0-0.0-0.11","test2_demo","1","test2","","6502","img/testing_events/Ab/Test_Ab_Event_21.jpg","c","response","e","false","Ab"
"","","","","","image-keyboard-response","90","311751","0.0-7.0-0.0-0.12","test2_demo","1","test2","","7348","img/testing_events/Ab/Test_Ab_Event_17.jpg","e","response","e","true","Ab"
"","","","","","image-keyboard-response","91","313078","0.0-7.0-0.0-0.13","test2_demo","1","test2","","1325","img/testing_events/Ab/Test_Ab_Event_12.jpg","n","response","n","true","Ab"
"","","","","","image-keyboard-response","92","314493","0.0-7.0-0.0-0.14","test2_demo","1","test2","","1414","img/testing_events/Ab/Test_Ab_Event_18.jpg","u","response","u","true","Ab"
"","","","","","image-keyboard-response","93","318363","0.0-7.0-0.0-0.15","test2_demo","1","test2","","3868","img/testing_events/Ab/Test_Ab_Event_10.jpg","u","response","u","true","Ab"
"","","","","","image-keyboard-response","94","319704","0.0-7.0-0.0-0.16","test2_demo","1","test2","","1339","img/testing_events/Ab/Test_Ab_Event_3.jpg","c","response","c","true","Ab"
"","","","","","image-keyboard-response","95","332209","0.0-7.0-0.0-0.17","test2_demo","1","test2","","12504","img/testing_events/Ab/Test_Ab_Event_2.jpg","u","response","u","true","Ab"
"","","","","","image-keyboard-response","96","334105","0.0-7.0-0.0-0.18","test2_demo","1","test2","","1895","img/testing_events/Ab/Test_Ab_Event_11.jpg","c","response","c","true","Ab"
"","","","","","image-keyboard-response","97","335473","0.0-7.0-0.0-0.19","test2_demo","1","test2","","1366","img/testing_events/Ab/Test_Ab_Event_5.jpg","e","response","e","true","Ab"
"","","","","","image-keyboard-response","98","344071","0.0-7.0-0.0-0.20","test2_demo","1","test2","","8597","img/testing_events/Ab/Test_Ab_Event_4.jpg","n","response","n","true","Ab"
"","","","","","image-keyboard-response","99","345707","0.0-7.0-0.0-0.21","test2_demo","1","test2","","1635","img/testing_events/Ab/Test_Ab_Event_1.jpg","e","response","e","true","Ab"
"","","","","","image-keyboard-response","100","350465","0.0-7.0-0.0-0.22","test2_demo","1","test2","","4756","img/testing_events/Ab/Test_Ab_Event_19.jpg","c","response","c","true","Ab"
"","","","","","image-keyboard-response","101","358896","0.0-7.0-0.0-0.23","test2_demo","1","test2","","8429","img/testing_events/Ab/Test_Ab_Event_9.jpg","e","response","e","true","Ab"
"","","","","","image-keyboard-response","102","362821","0.0-7.0-1.0-0.0","test2_demo","1","test2","","3924","img/testing_events/Ba/Test_Ba_Event_11.jpg","e","response","e","true","Ba"
"","","","","","image-keyboard-response","103","364945","0.0-7.0-1.0-0.1","test2_demo","1","test2","","2123","img/testing_events/Ba/Test_Ba_Event_8.jpg","u","response","u","true","Ba"
"","","","","","image-keyboard-response","104","366830","0.0-7.0-1.0-0.2","test2_demo","1","test2","","1884","img/testing_events/Ba/Test_Ba_Event_17.jpg","c","response","c","true","Ba"
"","","","","","image-keyboard-response","105","369589","0.0-7.0-1.0-0.3","test2_demo","1","test2","","2758","img/testing_events/Ba/Test_Ba_Event_7.jpg","e","response","e","true","Ba"
"","","","","","image-keyboard-response","106","377053","0.0-7.0-1.0-0.4","test2_demo","1","test2","","7463","img/testing_events/Ba/Test_Ba_Event_4.jpg","u","response","u","true","Ba"
"","","","","","image-keyboard-response","107","379931","0.0-7.0-1.0-0.5","test2_demo","1","test2","","2876","img/testing_events/Ba/Test_Ba_Event_2.jpg","n","response","n","true","Ba"
"","","","","","image-keyboard-response","108","381974","0.0-7.0-1.0-0.6","test2_demo","1","test2","","2041","img/testing_events/Ba/Test_Ba_Event_23.jpg","e","response","e","true","Ba"
"","","","","","image-keyboard-response","109","392100","0.0-7.0-1.0-0.7","test2_demo","1","test2","","10125","img/testing_events/Ba/Test_Ba_Event_13.jpg","c","response","c","true","Ba"
"","","","","","image-keyboard-response","110","396809","0.0-7.0-1.0-0.8","test2_demo","1","test2","","4708","img/testing_events/Ba/Test_Ba_Event_5.jpg","c","response","c","true","Ba"
"","","","","","image-keyboard-response","111","405172","0.0-7.0-1.0-0.9","test2_demo","1","test2","","8361","img/testing_events/Ba/Test_Ba_Event_6.jpg","n","response","n","true","Ba"
"","","","","","image-keyboard-response","112","406326","0.0-7.0-1.0-0.10","test2_demo","1","test2","","1153","img/testing_events/Ba/Test_Ba_Event_19.jpg","e","response","e","true","Ba"
"","","","","","image-keyboard-response","113","407276","0.0-7.0-1.0-0.11","test2_demo","1","test2","","948","img/testing_events/Ba/Test_Ba_Event_3.jpg","e","response","e","true","Ba"
"","","","","","image-keyboard-response","114","410027","0.0-7.0-1.0-0.12","test2_demo","1","test2","","2749","img/testing_events/Ba/Test_Ba_Event_9.jpg","c","response","c","true","Ba"
"","","","","","image-keyboard-response","115","411538","0.0-7.0-1.0-0.13","test2_demo","1","test2","","1505","img/testing_events/Ba/Test_Ba_Event_22.jpg","n","response","n","true","Ba"
"","","","","","image-keyboard-response","116","413491","0.0-7.0-1.0-0.14","test2_demo","1","test2","","1951","img/testing_events/Ba/Test_Ba_Event_21.jpg","c","response","c","true","Ba"
"","","","","","image-keyboard-response","117","414749","0.0-7.0-1.0-0.15","test2_demo","1","test2","","1256","img/testing_events/Ba/Test_Ba_Event_15.jpg","e","response","e","true","Ba"
"","","","","","image-keyboard-response","118","419582","0.0-7.0-1.0-0.16","test2_demo","1","test2","","4831","img/testing_events/Ba/Test_Ba_Event_18.jpg","n","response","n","true","Ba"
"","","","","","image-keyboard-response","119","421369","0.0-7.0-1.0-0.17","test2_demo","1","test2","","1786","img/testing_events/Ba/Test_Ba_Event_16.jpg","u","response","u","true","Ba"
"","","","","","image-keyboard-response","120","426393","0.0-7.0-1.0-0.18","test2_demo","1","test2","","5023","img/testing_events/Ba/Test_Ba_Event_10.jpg","n","response","n","true","Ba"
"","","","","","image-keyboard-response","121","427940","0.0-7.0-1.0-0.19","test2_demo","1","test2","","1546","img/testing_events/Ba/Test_Ba_Event_20.jpg","u","response","u","true","Ba"
"","","","","","image-keyboard-response","122","432248","0.0-7.0-1.0-0.20","test2_demo","1","test2","","4306","img/testing_events/Ba/Test_Ba_Event_12.jpg","u","response","u","true","Ba"
"","","","","","image-keyboard-response","123","433382","0.0-7.0-1.0-0.21","test2_demo","1","test2","","1133","img/testing_events/Ba/Test_Ba_Event_1.jpg","c","response","c","true","Ba"
"","","","","","image-keyboard-response","124","436099","0.0-7.0-1.0-0.22","test2_demo","1","test2","","2715","img/testing_events/Ba/Test_Ba_Event_14.jpg","n","response","n","true","Ba"
"","","","","","image-keyboard-response","125","438039","0.0-7.0-1.0-0.23","test2_demo","1","test2","","1939","img/testing_events/Ba/Test_Ba_Event_24.jpg","u","response","u","true","Ba"
"","","","","","image-keyboard-response","126","443658","0.0-7.0-2.0-0.0","test2_demo","1","test2","","5618","img/testing_events/Cb/Test_Cb_Event_9.jpg","u","response","u","true","Cb"
"","","","","","image-keyboard-response","127","444779","0.0-7.0-2.0-0.1","test2_demo","1","test2","","1120","img/testing_events/Cb/Test_Cb_Event_5.jpg","u","response","u","true","Cb"
"","","","","","image-keyboard-response","128","446013","0.0-7.0-2.0-0.2","test2_demo","1","test2","","1232","img/testing_events/Cb/Test_Cb_Event_21.jpg","u","response","u","true","Cb"
"","","","","","image-keyboard-response","129","447033","0.0-7.0-2.0-0.3","test2_demo","1","test2","","1019","img/testing_events/Cb/Test_Cb_Event_20.jpg","e","response","e","true","Cb"
"","","","","","image-keyboard-response","130","447839","0.0-7.0-2.0-0.4","test2_demo","1","test2","","804","img/testing_events/Cb/Test_Cb_Event_16.jpg","e","response","e","true","Cb"
"","","","","","image-keyboard-response","131","450996","0.0-7.0-2.0-0.5","test2_demo","1","test2","","3155","img/testing_events/Cb/Test_Cb_Event_7.jpg","n","response","n","true","Cb"
"","","","","","image-keyboard-response","132","452720","0.0-7.0-2.0-0.6","test2_demo","1","test2","","1723","img/testing_events/Cb/Test_Cb_Event_22.jpg","c","response","c","true","Cb"
"","","","","","image-keyboard-response","133","456303","0.0-7.0-2.0-0.7","test2_demo","1","test2","","3582","img/testing_events/Cb/Test_Cb_Event_6.jpg","c","response","c","true","Cb"
"","","","","","image-keyboard-response","134","459018","0.0-7.0-2.0-0.8","test2_demo","1","test2","","2713","img/testing_events/Cb/Test_Cb_Event_19.jpg","n","response","n","true","Cb"
"","","","","","image-keyboard-response","135","460455","0.0-7.0-2.0-0.9","test2_demo","1","test2","","1435","img/testing_events/Cb/Test_Cb_Event_8.jpg","e","response","e","true","Cb"
"","","","","","image-keyboard-response","136","462253","0.0-7.0-2.0-0.10","test2_demo","1","test2","","1797","img/testing_events/Cb/Test_Cb_Event_14.jpg","c","response","c","true","Cb"
"","","","","","image-keyboard-response","137","463733","0.0-7.0-2.0-0.11","test2_demo","1","test2","","1479","img/testing_events/Cb/Test_Cb_Event_12.jpg","u","response","e","false","Cb"
"","","","","","image-keyboard-response","138","466710","0.0-7.0-2.0-0.12","test2_demo","1","test2","","2976","img/testing_events/Cb/Test_Cb_Event_2.jpg","c","response","c","true","Cb"
"","","","","","image-keyboard-response","139","469000","0.0-7.0-2.0-0.13","test2_demo","1","test2","","2288","img/testing_events/Cb/Test_Cb_Event_4.jpg","e","response","e","true","Cb"
"","","","","","image-keyboard-response","140","471418","0.0-7.0-2.0-0.14","test2_demo","1","test2","","2413","img/testing_events/Cb/Test_Cb_Event_13.jpg","u","response","u","true","Cb"
"","","","","","image-keyboard-response","141","475257","0.0-7.0-2.0-0.15","test2_demo","1","test2","","3838","img/testing_events/Cb/Test_Cb_Event_10.jpg","c","response","c","true","Cb"
"","","","","","image-keyboard-response","142","476669","0.0-7.0-2.0-0.16","test2_demo","1","test2","","1410","img/testing_events/Cb/Test_Cb_Event_24.jpg","e","response","e","true","Cb"
"","","","","","image-keyboard-response","143","477900","0.0-7.0-2.0-0.17","test2_demo","1","test2","","1230","img/testing_events/Cb/Test_Cb_Event_1.jpg","u","response","u","true","Cb"
"","","","","","image-keyboard-response","144","479572","0.0-7.0-2.0-0.18","test2_demo","1","test2","","1671","img/testing_events/Cb/Test_Cb_Event_23.jpg","n","response","n","true","Cb"
"","","","","","image-keyboard-response","145","480687","0.0-7.0-2.0-0.19","test2_demo","1","test2","","1113","img/testing_events/Cb/Test_Cb_Event_15.jpg","n","response","n","true","Cb"
"","","","","","image-keyboard-response","146","481790","0.0-7.0-2.0-0.20","test2_demo","1","test2","","1101","img/testing_events/Cb/Test_Cb_Event_3.jpg","n","response","n","true","Cb"
"","","","","","image-keyboard-response","147","483806","0.0-7.0-2.0-0.21","test2_demo","1","test2","","2014","img/testing_events/Cb/Test_Cb_Event_11.jpg","n","response","n","true","Cb"
"","","","","","image-keyboard-response","148","485106","0.0-7.0-2.0-0.22","test2_demo","1","test2","","1299","img/testing_events/Cb/Test_Cb_Event_17.jpg","u","response","u","true","Cb"
"","","","","","image-keyboard-response","149","486794","0.0-7.0-2.0-0.23","test2_demo","1","test2","","1687","img/testing_events/Cb/Test_Cb_Event_18.jpg","c","response","c","true","Cb"
"","","","","","image-keyboard-response","150","488435","0.0-7.0-3.0-0.0","test2_demo","1","test2","","1639","img/testing_events/Ac/Test_Ac_Event_24.jpg","e","response","e","true","Ac"
"","","","","","image-keyboard-response","151","489640","0.0-7.0-3.0-0.1","test2_demo","1","test2","","1203","img/testing_events/Ac/Test_Ac_Event_16.jpg","e","response","e","true","Ac"
"","","","","","image-keyboard-response","152","491179","0.0-7.0-3.0-0.2","test2_demo","1","test2","","1538","img/testing_events/Ac/Test_Ac_Event_11.jpg","n","response","n","true","Ac"
"","","","","","image-keyboard-response","153","493399","0.0-7.0-3.0-0.3","test2_demo","1","test2","","2218","img/testing_events/Ac/Test_Ac_Event_17.jpg","u","response","u","true","Ac"
"","","","","","image-keyboard-response","154","496283","0.0-7.0-3.0-0.4","test2_demo","1","test2","","2882","img/testing_events/Ac/Test_Ac_Event_13.jpg","u","response","u","true","Ac"
"","","","","","image-keyboard-response","155","497523","0.0-7.0-3.0-0.5","test2_demo","1","test2","","1239","img/testing_events/Ac/Test_Ac_Event_21.jpg","u","response","u","true","Ac"
"","","","","","image-keyboard-response","156","500128","0.0-7.0-3.0-0.6","test2_demo","1","test2","","2603","img/testing_events/Ac/Test_Ac_Event_15.jpg","n","response","n","true","Ac"
"","","","","","image-keyboard-response","157","501969","0.0-7.0-3.0-0.7","test2_demo","1","test2","","1840","img/testing_events/Ac/Test_Ac_Event_9.jpg","u","response","u","true","Ac"
"","","","","","image-keyboard-response","158","510158","0.0-7.0-3.0-0.8","test2_demo","1","test2","","8188","img/testing_events/Ac/Test_Ac_Event_6.jpg","e","response","c","false","Ac"
"","","","","","image-keyboard-response","159","519152","0.0-7.0-3.0-0.9","test2_demo","1","test2","","8994","img/testing_events/Ac/Test_Ac_Event_8.jpg","e","response","e","true","Ac"
"","","","","","image-keyboard-response","160","523220","0.0-7.0-3.0-0.10","test2_demo","1","test2","","4065","img/testing_events/Ac/Test_Ac_Event_14.jpg","c","response","c","true","Ac"
"","","","","","image-keyboard-response","161","524825","0.0-7.0-3.0-0.11","test2_demo","1","test2","","1604","img/testing_events/Ac/Test_Ac_Event_23.jpg","n","response","n","true","Ac"
"","","","","","image-keyboard-response","162","530098","0.0-7.0-3.0-0.12","test2_demo","1","test2","","5271","img/testing_events/Ac/Test_Ac_Event_18.jpg","c","response","c","true","Ac"
"","","","","","image-keyboard-response","163","536774","0.0-7.0-3.0-0.13","test2_demo","1","test2","","6675","img/testing_events/Ac/Test_Ac_Event_5.jpg","u","response","u","true","Ac"
"","","","","","image-keyboard-response","164","545461","0.0-7.0-3.0-0.14","test2_demo","1","test2","","8686","img/testing_events/Ac/Test_Ac_Event_7.jpg","n","response","n","true","Ac"
"","","","","","image-keyboard-response","165","546799","0.0-7.0-3.0-0.15","test2_demo","1","test2","","1336","img/testing_events/Ac/Test_Ac_Event_19.jpg","n","response","n","true","Ac"
"","","","","","image-keyboard-response","166","548503","0.0-7.0-3.0-0.16","test2_demo","1","test2","","1703","img/testing_events/Ac/Test_Ac_Event_12.jpg","e","response","e","true","Ac"
"","","","","","image-keyboard-response","167","554359","0.0-7.0-3.0-0.17","test2_demo","1","test2","","5855","img/testing_events/Ac/Test_Ac_Event_22.jpg","c","response","c","true","Ac"
"","","","","","image-keyboard-response","168","555958","0.0-7.0-3.0-0.18","test2_demo","1","test2","","1598","img/testing_events/Ac/Test_Ac_Event_20.jpg","e","response","e","true","Ac"
"","","","","","image-keyboard-response","169","564212","0.0-7.0-3.0-0.19","test2_demo","1","test2","","8252","img/testing_events/Ac/Test_Ac_Event_10.jpg","c","response","c","true","Ac"
"","","","","","image-keyboard-response","170","565641","0.0-7.0-3.0-0.20","test2_demo","1","test2","","1427","img/testing_events/Ac/Test_Ac_Event_3.jpg","n","response","n","true","Ac"
"","","","","","image-keyboard-response","171","567395","0.0-7.0-3.0-0.21","test2_demo","1","test2","","1752","img/testing_events/Ac/Test_Ac_Event_2.jpg","e","response","c","false","Ac"
"","","","","","image-keyboard-response","172","569531","0.0-7.0-3.0-0.22","test2_demo","1","test2","","2135","img/testing_events/Ac/Test_Ac_Event_4.jpg","e","response","e","true","Ac"
"","","","","","image-keyboard-response","173","584166","0.0-7.0-3.0-0.23","test2_demo","1","test2","","14634","img/testing_events/Ac/Test_Ac_Event_1.jpg","u","response","u","true","Ac"
"","","","","","image-keyboard-response","174","590401","0.0-7.0-4.0-0.0","test2_demo","1","test2","","6234","img/testing_events/Ca/Test_Ca_Event_4.jpg","n","response","n","true","Ca"
"","","","","","image-keyboard-response","175","594351","0.0-7.0-4.0-0.1","test2_demo","1","test2","","3948","img/testing_events/Ca/Test_Ca_Event_20.jpg","n","response","n","true","Ca"
"","","","","","image-keyboard-response","176","596225","0.0-7.0-4.0-0.2","test2_demo","1","test2","","1872","img/testing_events/Ca/Test_Ca_Event_24.jpg","n","response","n","true","Ca"
"","","","","","image-keyboard-response","177","599811","0.0-7.0-4.0-0.3","test2_demo","1","test2","","3585","img/testing_events/Ca/Test_Ca_Event_11.jpg","c","response","c","true","Ca"
"","","","","","image-keyboard-response","178","607383","0.0-7.0-4.0-0.4","test2_demo","1","test2","","7570","img/testing_events/Ca/Test_Ca_Event_18.jpg","u","response","u","true","Ca"
"","","","","","image-keyboard-response","179","608469","0.0-7.0-4.0-0.5","test2_demo","1","test2","","1084","img/testing_events/Ca/Test_Ca_Event_17.jpg","e","response","e","true","Ca"
"","","","","","image-keyboard-response","180","610576","0.0-7.0-4.0-0.6","test2_demo","1","test2","","2106","img/testing_events/Ca/Test_Ca_Event_19.jpg","c","response","c","true","Ca"
"","","","","","image-keyboard-response","181","611935","0.0-7.0-4.0-0.7","test2_demo","1","test2","","1358","img/testing_events/Ca/Test_Ca_Event_23.jpg","c","response","c","true","Ca"
"","","","","","image-keyboard-response","182","615577","0.0-7.0-4.0-0.8","test2_demo","1","test2","","3640","img/testing_events/Ca/Test_Ca_Event_13.jpg","e","response","e","true","Ca"
"","","","","","image-keyboard-response","183","625342","0.0-7.0-4.0-0.9","test2_demo","1","test2","","9764","img/testing_events/Ca/Test_Ca_Event_21.jpg","e","response","e","true","Ca"
"","","","","","image-keyboard-response","184","628463","0.0-7.0-4.0-0.10","test2_demo","1","test2","","3120","img/testing_events/Ca/Test_Ca_Event_14.jpg","u","response","u","true","Ca"
"","","","","","image-keyboard-response","185","632307","0.0-7.0-4.0-0.11","test2_demo","1","test2","","3843","img/testing_events/Ca/Test_Ca_Event_15.jpg","c","response","c","true","Ca"
"","","","","","image-keyboard-response","186","638187","0.0-7.0-4.0-0.12","test2_demo","1","test2","","5878","img/testing_events/Ca/Test_Ca_Event_2.jpg","u","response","u","true","Ca"
"","","","","","image-keyboard-response","187","646157","0.0-7.0-4.0-0.13","test2_demo","1","test2","","7969","img/testing_events/Ca/Test_Ca_Event_6.jpg","u","response","u","true","Ca"
"","","","","","image-keyboard-response","188","669433","0.0-7.0-4.0-0.14","test2_demo","1","test2","","23274","img/testing_events/Ca/Test_Ca_Event_7.jpg","c","response","c","true","Ca"
"","","","","","image-keyboard-response","189","671021","0.0-7.0-4.0-0.15","test2_demo","1","test2","","1587","img/testing_events/Ca/Test_Ca_Event_22.jpg","u","response","u","true","Ca"
"","","","","","image-keyboard-response","190","673472","0.0-7.0-4.0-0.16","test2_demo","1","test2","","2445","img/testing_events/Ca/Test_Ca_Event_9.jpg","e","response","e","true","Ca"
"","","","","","image-keyboard-response","191","678765","0.0-7.0-4.0-0.17","test2_demo","1","test2","","5292","img/testing_events/Ca/Test_Ca_Event_3.jpg","c","response","c","true","Ca"
"","","","","","image-keyboard-response","192","687254","0.0-7.0-4.0-0.18","test2_demo","1","test2","","8488","img/testing_events/Ca/Test_Ca_Event_8.jpg","n","response","n","true","Ca"
"","","","","","image-keyboard-response","193","690586","0.0-7.0-4.0-0.19","test2_demo","1","test2","","3331","img/testing_events/Ca/Test_Ca_Event_16.jpg","n","response","n","true","Ca"
"","","","","","image-keyboard-response","194","693058","0.0-7.0-4.0-0.20","test2_demo","1","test2","","2470","img/testing_events/Ca/Test_Ca_Event_12.jpg","n","response","n","true","Ca"
"","","","","","image-keyboard-response","195","695906","0.0-7.0-4.0-0.21","test2_demo","1","test2","","2847","img/testing_events/Ca/Test_Ca_Event_1.jpg","e","response","e","true","Ca"
"","","","","","image-keyboard-response","196","698134","0.0-7.0-4.0-0.22","test2_demo","1","test2","","2227","img/testing_events/Ca/Test_Ca_Event_10.jpg","c","response","u","false","Ca"
"","","","","","image-keyboard-response","197","699494","0.0-7.0-4.0-0.23","test2_demo","1","test2","","1358","img/testing_events/Ca/Test_Ca_Event_5.jpg","e","response","e","true","Ca"
"","","","","","image-keyboard-response","198","700832","0.0-7.0-5.0-0.0","test2_demo","1","test2","","1337","img/testing_events/Bc/Test_Bc_Event_4.jpg","c","response","c","true","Bc"
"","","","","","image-keyboard-response","199","703152","0.0-7.0-5.0-0.1","test2_demo","1","test2","","2318","img/testing_events/Bc/Test_Bc_Event_13.jpg","n","response","n","true","Bc"
"","","","","","image-keyboard-response","200","704594","0.0-7.0-5.0-0.2","test2_demo","1","test2","","1441","img/testing_events/Bc/Test_Bc_Event_10.jpg","e","response","e","true","Bc"
"","","","","","image-keyboard-response","201","707064","0.0-7.0-5.0-0.3","test2_demo","1","test2","","2468","img/testing_events/Bc/Test_Bc_Event_1.jpg","n","response","n","true","Bc"
"","","","","","image-keyboard-response","202","718897","0.0-7.0-5.0-0.4","test2_demo","1","test2","","11832","img/testing_events/Bc/Test_Bc_Event_21.jpg","n","response","n","true","Bc"
"","","","","","image-keyboard-response","203","721733","0.0-7.0-5.0-0.5","test2_demo","1","test2","","2835","img/testing_events/Bc/Test_Bc_Event_14.jpg","e","response","e","true","Bc"
"","","","","","image-keyboard-response","204","724918","0.0-7.0-5.0-0.6","test2_demo","1","test2","","3182","img/testing_events/Bc/Test_Bc_Event_5.jpg","n","response","n","true","Bc"
"","","","","","image-keyboard-response","205","730612","0.0-7.0-5.0-0.7","test2_demo","1","test2","","5693","img/testing_events/Bc/Test_Bc_Event_17.jpg","n","response","n","true","Bc"
"","","","","","image-keyboard-response","206","733846","0.0-7.0-5.0-0.8","test2_demo","1","test2","","3232","img/testing_events/Bc/Test_Bc_Event_19.jpg","u","response","u","true","Bc"
"","","","","","image-keyboard-response","207","737275","0.0-7.0-5.0-0.9","test2_demo","1","test2","","3428","img/testing_events/Bc/Test_Bc_Event_20.jpg","c","response","c","true","Bc"
"","","","","","image-keyboard-response","208","742077","0.0-7.0-5.0-0.10","test2_demo","1","test2","","4801","img/testing_events/Bc/Test_Bc_Event_24.jpg","c","response","c","true","Bc"
"","","","","","image-keyboard-response","209","743007","0.0-7.0-5.0-0.11","test2_demo","1","test2","","929","img/testing_events/Bc/Test_Bc_Event_16.jpg","c","response","c","true","Bc"
"","","","","","image-keyboard-response","210","744426","0.0-7.0-5.0-0.12","test2_demo","1","test2","","1417","img/testing_events/Bc/Test_Bc_Event_2.jpg","e","response","e","true","Bc"
"","","","","","image-keyboard-response","211","745903","0.0-7.0-5.0-0.13","test2_demo","1","test2","","1476","img/testing_events/Bc/Test_Bc_Event_18.jpg","e","response","e","true","Bc"
"","","","","","image-keyboard-response","212","747027","0.0-7.0-5.0-0.14","test2_demo","1","test2","","1122","img/testing_events/Bc/Test_Bc_Event_8.jpg","c","response","c","true","Bc"
"","","","","","image-keyboard-response","213","749105","0.0-7.0-5.0-0.15","test2_demo","1","test2","","2077","img/testing_events/Bc/Test_Bc_Event_6.jpg","u","response","e","false","Bc"
"","","","","","image-keyboard-response","214","752487","0.0-7.0-5.0-0.16","test2_demo","1","test2","","3381","img/testing_events/Bc/Test_Bc_Event_15.jpg","u","response","u","true","Bc"
"","","","","","image-keyboard-response","215","760230","0.0-7.0-5.0-0.17","test2_demo","1","test2","","7741","img/testing_events/Bc/Test_Bc_Event_9.jpg","n","response","n","true","Bc"
"","","","","","image-keyboard-response","216","766557","0.0-7.0-5.0-0.18","test2_demo","1","test2","","6321","img/testing_events/Bc/Test_Bc_Event_23.jpg","u","response","u","true","Bc"
"","","","","","image-keyboard-response","217","768242","0.0-7.0-5.0-0.19","test2_demo","1","test2","","1683","img/testing_events/Bc/Test_Bc_Event_11.jpg","u","response","u","true","Bc"
"","","","","","image-keyboard-response","218","770921","0.0-7.0-5.0-0.20","test2_demo","1","test2","","2677","img/testing_events/Bc/Test_Bc_Event_3.jpg","u","response","u","true","Bc"
"","","","","","image-keyboard-response","219","774187","0.0-7.0-5.0-0.21","test2_demo","1","test2","","3264","img/testing_events/Bc/Test_Bc_Event_12.jpg","e","response","c","false","Bc"
"","","","","","image-keyboard-response","220","776626","0.0-7.0-5.0-0.22","test2_demo","1","test2","","2437","img/testing_events/Bc/Test_Bc_Event_7.jpg","e","response","u","false","Bc"
"","","","","","image-keyboard-response","221","777949","0.0-7.0-5.0-0.23","test2_demo","1","test2","","1322","img/testing_events/Bc/Test_Bc_Event_22.jpg","e","response","e","true","Bc"
"","","","","","survey-text","222","784055","0.0-8.0","test2_demo","1","test2","","6090","","{""Q0"":""no"",""Q1"":""no"",""Q2"":""no""}","","","",""
"","","","","","survey-html-form","223","802048","0.0-9.0","test2_demo","1","test2","","17990","","{""Gender"":""Male"",""Age"":""23"",""ColorBlind"":""No"",""Education"":""Bachelors degree"",""Income"":""$25,000-$49,999"",""Race"":""Asian/Pacific Islander"",""Fluent"":""Yes"",""AgeEnglish"":""0"",""Country"":""USA""}","","","",""
"true","","","","","fullscreen","224","802050","0.0-10.0","test2_demo","1","test2","","","","","","","",""
