success,timeout,failed_images,failed_audio,failed_video,trial_type,trial_index,time_elapsed,internal_node_id,subject_id,study_id,session_id,view_history,rt,stimulus,response,task,correct_response,attention_duration,correct,retrieval_group
TRUE,FALSE,[],[],[],preload,0,6046,0.0-0.0,24,Study 24,Session 24,NA,NA,NA,NA,NA,NA,NA,NA,NA
TRUE,NA,NA,NA,NA,fullscreen,1,30127,0.0-1.0,24,Study 24,Session 24,NA,NA,NA,NA,NA,NA,NA,NA,NA
NA,NA,NA,NA,NA,instructions,2,31855,0.0-2.0,24,Study 24,Session 24,"[{""page_index"":0,""viewing_time"":1726}]",1726,NA,NA,NA,NA,NA,NA,NA
NA,NA,NA,NA,NA,html-keyboard-response,3,34309,0.0-3.0,24,Study 24,Session 24,NA,2452,"Welcome to the experiment. <br /><br />This experiment will take about 20 minutes. Please complete all in one sitting. <br /><br />For this study, <strong>please use</strong> a laptop or desktop computer (not a mobile phone or tablet). Also, please use either <u>Chrome or Firefox</u>. <br /><br />Once you begin, <strong>DO NOT</strong> refresh the browser, as the experiment will reset and you will lose your progress. <br /><br />Press the <strong class=""upperline"">B</strong> key on your keyboard to begin.",b,NA,NA,NA,NA,NA
NA,NA,NA,NA,NA,instructions,4,41685,0.0-4.0,24,Study 24,Session 24,"[{""page_index"":0,""viewing_time"":1782},{""page_index"":1,""viewing_time"":3112},{""page_index"":2,""viewing_time"":1477}]",6371,NA,NA,NA,NA,NA,NA,NA
NA,NA,NA,NA,NA,html-keyboard-response,5,44824,0.0-5.0-0.0,24,Study 24,Session 24,NA,null,"<div style=""font-size:60px;"">+</div>",null,fixation,NA,NA,NA,NA
NA,NA,NA,NA,NA,image-keyboard-response,6,50912,0.0-5.0-1.0,24,Study 24,Session 24,NA,null,img/encoding_events/Event_1.jpg,null,NA,NA,NA,NA,NA
NA,NA,NA,NA,NA,html-keyboard-response,7,50913,0.0-5.0-2.0,24,Study 24,Session 24,NA,null,Please press the <strong><u>a</u></strong> key to continue,null,response,a,0,FALSE,NA
NA,NA,NA,NA,NA,html-keyboard-response,8,51422,0.0-5.0-0.1,24,Study 24,Session 24,NA,null,"<div style=""font-size:60px;"">+</div>",null,fixation,NA,NA,NA,NA
NA,NA,NA,NA,NA,image-keyboard-response,9,57542,0.0-5.0-1.1,24,Study 24,Session 24,NA,null,img/encoding_events/Event_6.jpg,null,NA,NA,NA,NA,NA
NA,NA,NA,NA,NA,html-keyboard-response,10,57557,0.0-5.0-2.1,24,Study 24,Session 24,NA,null,Please press the <strong><u>f</u></strong> key to continue,null,response,f,0,FALSE,NA
NA,NA,NA,NA,NA,html-keyboard-response,11,58068,0.0-5.0-0.2,24,Study 24,Session 24,NA,null,"<div style=""font-size:60px;"">+</div>",null,fixation,NA,NA,NA,NA
NA,NA,NA,NA,NA,image-keyboard-response,12,64077,0.0-5.0-1.2,24,Study 24,Session 24,NA,null,img/encoding_events/Event_5.jpg,null,NA,NA,NA,NA,NA
NA,NA,NA,NA,NA,html-keyboard-response,13,64088,0.0-5.0-2.2,24,Study 24,Session 24,NA,null,Please press the <strong><u>f</u></strong> key to continue,null,response,f,0,FALSE,NA
NA,NA,NA,NA,NA,html-keyboard-response,14,64589,0.0-5.0-0.3,24,Study 24,Session 24,NA,null,"<div style=""font-size:60px;"">+</div>",null,fixation,NA,NA,NA,NA
NA,NA,NA,NA,NA,image-keyboard-response,15,70605,0.0-5.0-1.3,24,Study 24,Session 24,NA,null,img/encoding_events/Event_3.jpg,null,NA,NA,NA,NA,NA
NA,NA,NA,NA,NA,html-keyboard-response,16,72241,0.0-5.0-2.3,24,Study 24,Session 24,NA,1636,Please press the <strong><u>d</u></strong> key to continue,d,response,d,6000,TRUE,NA
NA,NA,NA,NA,NA,html-keyboard-response,17,72750,0.0-5.0-0.4,24,Study 24,Session 24,NA,null,"<div style=""font-size:60px;"">+</div>",null,fixation,NA,NA,NA,NA
NA,NA,NA,NA,NA,image-keyboard-response,18,79431,0.0-5.0-1.4,24,Study 24,Session 24,NA,null,img/encoding_events/Event_7.jpg,null,NA,NA,NA,NA,NA
NA,NA,NA,NA,NA,html-keyboard-response,19,79433,0.0-5.0-2.4,24,Study 24,Session 24,NA,null,Please press the <strong><u>a</u></strong> key to continue,null,response,a,0,FALSE,NA
NA,NA,NA,NA,NA,html-keyboard-response,20,79933,0.0-5.0-0.5,24,Study 24,Session 24,NA,null,"<div style=""font-size:60px;"">+</div>",null,fixation,NA,NA,NA,NA
NA,NA,NA,NA,NA,image-keyboard-response,21,85948,0.0-5.0-1.5,24,Study 24,Session 24,NA,null,img/encoding_events/Event_8.jpg,null,NA,NA,NA,NA,NA
NA,NA,NA,NA,NA,html-keyboard-response,22,85962,0.0-5.0-2.5,24,Study 24,Session 24,NA,null,Please press the <strong><u>j</u></strong> key to continue,null,response,j,0,FALSE,NA
NA,NA,NA,NA,NA,html-keyboard-response,23,86463,0.0-5.0-0.6,24,Study 24,Session 24,NA,null,"<div style=""font-size:60px;"">+</div>",null,fixation,NA,NA,NA,NA
NA,NA,NA,NA,NA,image-keyboard-response,24,92476,0.0-5.0-1.6,24,Study 24,Session 24,NA,null,img/encoding_events/Event_2.jpg,null,NA,NA,NA,NA,NA
NA,NA,NA,NA,NA,html-keyboard-response,25,92491,0.0-5.0-2.6,24,Study 24,Session 24,NA,null,Please press the <strong><u>s</u></strong> key to continue,null,response,s,0,FALSE,NA
NA,NA,NA,NA,NA,html-keyboard-response,26,93001,0.0-5.0-0.7,24,Study 24,Session 24,NA,null,"<div style=""font-size:60px;"">+</div>",null,fixation,NA,NA,NA,NA
NA,NA,NA,NA,NA,image-keyboard-response,27,99006,0.0-5.0-1.7,24,Study 24,Session 24,NA,null,img/encoding_events/Event_4.jpg,null,NA,NA,NA,NA,NA
NA,NA,NA,NA,NA,html-keyboard-response,28,105014,0.0-5.0-2.7,24,Study 24,Session 24,NA,null,Please press the <strong><u>f</u></strong> key to continue,null,response,f,6000,FALSE,NA
NA,NA,NA,NA,NA,html-keyboard-response,29,105518,0.0-5.0-0.8,24,Study 24,Session 24,NA,null,"<div style=""font-size:60px;"">+</div>",null,fixation,NA,NA,NA,NA
NA,NA,NA,NA,NA,image-keyboard-response,30,111534,0.0-5.0-1.8,24,Study 24,Session 24,NA,null,img/encoding_events/Event_14.jpg,null,NA,NA,NA,NA,NA
NA,NA,NA,NA,NA,html-keyboard-response,31,111551,0.0-5.0-2.8,24,Study 24,Session 24,NA,null,Please press the <strong><u>k</u></strong> key to continue,null,response,k,0,FALSE,NA
NA,NA,NA,NA,NA,html-keyboard-response,32,112052,0.0-5.0-0.9,24,Study 24,Session 24,NA,null,"<div style=""font-size:60px;"">+</div>",null,fixation,NA,NA,NA,NA
NA,NA,NA,NA,NA,image-keyboard-response,33,118061,0.0-5.0-1.9,24,Study 24,Session 24,NA,null,img/encoding_events/Event_15.jpg,null,NA,NA,NA,NA,NA
NA,NA,NA,NA,NA,html-keyboard-response,34,118078,0.0-5.0-2.9,24,Study 24,Session 24,NA,null,Please press the <strong><u>s</u></strong> key to continue,null,response,s,0,FALSE,NA
NA,NA,NA,NA,NA,html-keyboard-response,35,118586,0.0-5.0-0.10,24,Study 24,Session 24,NA,null,"<div style=""font-size:60px;"">+</div>",null,fixation,NA,NA,NA,NA
NA,NA,NA,NA,NA,image-keyboard-response,36,124601,0.0-5.0-1.10,24,Study 24,Session 24,NA,null,img/encoding_events/Event_13.jpg,null,NA,NA,NA,NA,NA
NA,NA,NA,NA,NA,html-keyboard-response,37,124617,0.0-5.0-2.10,24,Study 24,Session 24,NA,null,Please press the <strong><u>j</u></strong> key to continue,null,response,j,0,FALSE,NA
NA,NA,NA,NA,NA,html-keyboard-response,38,125127,0.0-5.0-0.11,24,Study 24,Session 24,NA,null,"<div style=""font-size:60px;"">+</div>",null,fixation,NA,NA,NA,NA
NA,NA,NA,NA,NA,image-keyboard-response,39,131133,0.0-5.0-1.11,24,Study 24,Session 24,NA,null,img/encoding_events/Event_11.jpg,null,NA,NA,NA,NA,NA
NA,NA,NA,NA,NA,html-keyboard-response,40,137138,0.0-5.0-2.11,24,Study 24,Session 24,NA,null,Please press the <strong><u>f</u></strong> key to continue,null,response,f,6000,FALSE,NA
NA,NA,NA,NA,NA,html-keyboard-response,41,137653,0.0-5.0-0.12,24,Study 24,Session 24,NA,null,"<div style=""font-size:60px;"">+</div>",null,fixation,NA,NA,NA,NA
NA,NA,NA,NA,NA,image-keyboard-response,42,143671,0.0-5.0-1.12,24,Study 24,Session 24,NA,null,img/encoding_events/Event_9.jpg,null,NA,NA,NA,NA,NA
NA,NA,NA,NA,NA,html-keyboard-response,43,143684,0.0-5.0-2.12,24,Study 24,Session 24,NA,null,Please press the <strong><u>s</u></strong> key to continue,null,response,s,0,FALSE,NA
NA,NA,NA,NA,NA,html-keyboard-response,44,144191,0.0-5.0-0.13,24,Study 24,Session 24,NA,null,"<div style=""font-size:60px;"">+</div>",null,fixation,NA,NA,NA,NA
NA,NA,NA,NA,NA,image-keyboard-response,45,150207,0.0-5.0-1.13,24,Study 24,Session 24,NA,null,img/encoding_events/Event_16.jpg,null,NA,NA,NA,NA,NA
NA,NA,NA,NA,NA,html-keyboard-response,46,150222,0.0-5.0-2.13,24,Study 24,Session 24,NA,null,Please press the <strong><u>d</u></strong> key to continue,null,response,d,0,FALSE,NA
NA,NA,NA,NA,NA,html-keyboard-response,47,150732,0.0-5.0-0.14,24,Study 24,Session 24,NA,null,"<div style=""font-size:60px;"">+</div>",null,fixation,NA,NA,NA,NA
NA,NA,NA,NA,NA,image-keyboard-response,48,157118,0.0-5.0-1.14,24,Study 24,Session 24,NA,null,img/encoding_events/Event_10.jpg,null,NA,NA,NA,NA,NA
NA,NA,NA,NA,NA,html-keyboard-response,49,157134,0.0-5.0-2.14,24,Study 24,Session 24,NA,null,Please press the <strong><u>f</u></strong> key to continue,null,response,f,0,FALSE,NA
NA,NA,NA,NA,NA,html-keyboard-response,50,157646,0.0-5.0-0.15,24,Study 24,Session 24,NA,null,"<div style=""font-size:60px;"">+</div>",null,fixation,NA,NA,NA,NA
NA,NA,NA,NA,NA,image-keyboard-response,51,163657,0.0-5.0-1.15,24,Study 24,Session 24,NA,null,img/encoding_events/Event_12.jpg,null,NA,NA,NA,NA,NA
NA,NA,NA,NA,NA,html-keyboard-response,52,166684,0.0-5.0-2.15,24,Study 24,Session 24,NA,3028,Please press the <strong><u>d</u></strong> key to continue,d,response,d,6000,TRUE,NA
NA,NA,NA,NA,NA,html-keyboard-response,53,167193,0.0-5.0-0.16,24,Study 24,Session 24,NA,null,"<div style=""font-size:60px;"">+</div>",null,fixation,NA,NA,NA,NA
NA,NA,NA,NA,NA,image-keyboard-response,54,173207,0.0-5.0-1.16,24,Study 24,Session 24,NA,null,img/encoding_events/Event_21.jpg,null,NA,NA,NA,NA,NA
NA,NA,NA,NA,NA,html-keyboard-response,55,173208,0.0-5.0-2.16,24,Study 24,Session 24,NA,null,Please press the <strong><u>a</u></strong> key to continue,null,response,a,0,FALSE,NA
NA,NA,NA,NA,NA,html-keyboard-response,56,173715,0.0-5.0-0.17,24,Study 24,Session 24,NA,null,"<div style=""font-size:60px;"">+</div>",null,fixation,NA,NA,NA,NA
NA,NA,NA,NA,NA,image-keyboard-response,57,179848,0.0-5.0-1.17,24,Study 24,Session 24,NA,null,img/encoding_events/Event_22.jpg,null,NA,NA,NA,NA,NA
NA,NA,NA,NA,NA,html-keyboard-response,58,179864,0.0-5.0-2.17,24,Study 24,Session 24,NA,null,Please press the <strong><u>k</u></strong> key to continue,null,response,k,0,FALSE,NA
NA,NA,NA,NA,NA,html-keyboard-response,59,180376,0.0-5.0-0.18,24,Study 24,Session 24,NA,null,"<div style=""font-size:60px;"">+</div>",null,fixation,NA,NA,NA,NA
NA,NA,NA,NA,NA,image-keyboard-response,60,186388,0.0-5.0-1.18,24,Study 24,Session 24,NA,null,img/encoding_events/Event_19.jpg,null,NA,NA,NA,NA,NA
NA,NA,NA,NA,NA,html-keyboard-response,61,186401,0.0-5.0-2.18,24,Study 24,Session 24,NA,null,Please press the <strong><u>d</u></strong> key to continue,null,response,d,0,FALSE,NA
NA,NA,NA,NA,NA,html-keyboard-response,62,186915,0.0-5.0-0.19,24,Study 24,Session 24,NA,null,"<div style=""font-size:60px;"">+</div>",null,fixation,NA,NA,NA,NA
NA,NA,NA,NA,NA,image-keyboard-response,63,192933,0.0-5.0-1.19,24,Study 24,Session 24,NA,null,img/encoding_events/Event_17.jpg,null,NA,NA,NA,NA,NA
NA,NA,NA,NA,NA,html-keyboard-response,64,194595,0.0-5.0-2.19,24,Study 24,Session 24,NA,1662,Please press the <strong><u>s</u></strong> key to continue,s,response,s,6000,TRUE,NA
NA,NA,NA,NA,NA,html-keyboard-response,65,195098,0.0-5.0-0.20,24,Study 24,Session 24,NA,null,"<div style=""font-size:60px;"">+</div>",null,fixation,NA,NA,NA,NA
NA,NA,NA,NA,NA,image-keyboard-response,66,201105,0.0-5.0-1.20,24,Study 24,Session 24,NA,null,img/encoding_events/Event_23.jpg,null,NA,NA,NA,NA,NA
NA,NA,NA,NA,NA,html-keyboard-response,67,201106,0.0-5.0-2.20,24,Study 24,Session 24,NA,null,Please press the <strong><u>d</u></strong> key to continue,null,response,d,0,FALSE,NA
NA,NA,NA,NA,NA,html-keyboard-response,68,201616,0.0-5.0-0.21,24,Study 24,Session 24,NA,null,"<div style=""font-size:60px;"">+</div>",null,fixation,NA,NA,NA,NA
NA,NA,NA,NA,NA,image-keyboard-response,69,207624,0.0-5.0-1.21,24,Study 24,Session 24,NA,null,img/encoding_events/Event_18.jpg,null,NA,NA,NA,NA,NA
NA,NA,NA,NA,NA,html-keyboard-response,70,207636,0.0-5.0-2.21,24,Study 24,Session 24,NA,null,Please press the <strong><u>s</u></strong> key to continue,null,response,s,0,FALSE,NA
NA,NA,NA,NA,NA,html-keyboard-response,71,208144,0.0-5.0-0.22,24,Study 24,Session 24,NA,null,"<div style=""font-size:60px;"">+</div>",null,fixation,NA,NA,NA,NA
NA,NA,NA,NA,NA,image-keyboard-response,72,214158,0.0-5.0-1.22,24,Study 24,Session 24,NA,null,img/encoding_events/Event_20.jpg,null,NA,NA,NA,NA,NA
NA,NA,NA,NA,NA,html-keyboard-response,73,214173,0.0-5.0-2.22,24,Study 24,Session 24,NA,null,Please press the <strong><u>d</u></strong> key to continue,null,response,d,0,FALSE,NA
NA,NA,NA,NA,NA,html-keyboard-response,74,214682,0.0-5.0-0.23,24,Study 24,Session 24,NA,null,"<div style=""font-size:60px;"">+</div>",null,fixation,NA,NA,NA,NA
NA,NA,NA,NA,NA,image-keyboard-response,75,220693,0.0-5.0-1.23,24,Study 24,Session 24,NA,null,img/encoding_events/Event_24.jpg,null,NA,NA,NA,NA,NA
NA,NA,NA,NA,NA,html-keyboard-response,76,226703,0.0-5.0-2.23,24,Study 24,Session 24,NA,null,Please press the <strong><u>s</u></strong> key to continue,null,response,s,6000,FALSE,NA
NA,NA,NA,NA,NA,instructions,77,291922,0.0-6.0,24,Study 24,Session 24,"[{""page_index"":0,""viewing_time"":12462},{""page_index"":1,""viewing_time"":1869},{""page_index"":2,""viewing_time"":1227},{""page_index"":3,""viewing_time"":19340},{""page_index"":4,""viewing_time"":24910},{""page_index"":5,""viewing_time"":4161},{""page_index"":6,""viewing_time"":1250}]",65219,NA,NA,NA,NA,NA,NA,NA
NA,NA,NA,NA,NA,image-keyboard-response,78,298043,0.0-7.0-0.0-0.0,24,Study 24,Session 24,NA,3292,img/testing_events/Ca/Test_Ca_Event_9.jpg,e,response,e,NA,TRUE,Ca
NA,NA,NA,NA,NA,image-keyboard-response,79,301353,0.0-7.0-0.0-0.1,24,Study 24,Session 24,NA,3308,img/testing_events/Ca/Test_Ca_Event_1.jpg,e,response,e,NA,TRUE,Ca
NA,NA,NA,NA,NA,image-keyboard-response,80,302520,0.0-7.0-0.0-0.2,24,Study 24,Session 24,NA,1164,img/testing_events/Ca/Test_Ca_Event_20.jpg,n,response,n,NA,TRUE,Ca
NA,NA,NA,NA,NA,image-keyboard-response,81,303413,0.0-7.0-0.0-0.3,24,Study 24,Session 24,NA,888,img/testing_events/Ca/Test_Ca_Event_4.jpg,c,response,n,NA,FALSE,Ca
NA,NA,NA,NA,NA,image-keyboard-response,82,303744,0.0-7.0-0.0-0.4,24,Study 24,Session 24,NA,326,img/testing_events/Ca/Test_Ca_Event_12.jpg,u,response,n,NA,FALSE,Ca
NA,NA,NA,NA,NA,image-keyboard-response,83,304144,0.0-7.0-0.0-0.5,24,Study 24,Session 24,NA,398,img/testing_events/Ca/Test_Ca_Event_16.jpg,c,response,n,NA,FALSE,Ca
NA,NA,NA,NA,NA,image-keyboard-response,84,304752,0.0-7.0-0.0-0.6,24,Study 24,Session 24,NA,605,img/testing_events/Ca/Test_Ca_Event_7.jpg,e,response,c,NA,FALSE,Ca
NA,NA,NA,NA,NA,image-keyboard-response,85,305061,0.0-7.0-0.0-0.7,24,Study 24,Session 24,NA,306,img/testing_events/Ca/Test_Ca_Event_18.jpg,n,response,u,NA,FALSE,Ca
NA,NA,NA,NA,NA,image-keyboard-response,86,305390,0.0-7.0-0.0-0.8,24,Study 24,Session 24,NA,326,img/testing_events/Ca/Test_Ca_Event_13.jpg,u,response,e,NA,FALSE,Ca
NA,NA,NA,NA,NA,image-keyboard-response,87,305991,0.0-7.0-0.0-0.9,24,Study 24,Session 24,NA,597,img/testing_events/Ca/Test_Ca_Event_17.jpg,c,response,e,NA,FALSE,Ca
NA,NA,NA,NA,NA,image-keyboard-response,88,306453,0.0-7.0-0.0-0.10,24,Study 24,Session 24,NA,458,img/testing_events/Ca/Test_Ca_Event_6.jpg,e,response,u,NA,FALSE,Ca
NA,NA,NA,NA,NA,image-keyboard-response,89,306883,0.0-7.0-0.0-0.11,24,Study 24,Session 24,NA,426,img/testing_events/Ca/Test_Ca_Event_14.jpg,n,response,u,NA,FALSE,Ca
NA,NA,NA,NA,NA,image-keyboard-response,90,307265,0.0-7.0-0.0-0.12,24,Study 24,Session 24,NA,378,img/testing_events/Ca/Test_Ca_Event_8.jpg,c,response,n,NA,FALSE,Ca
NA,NA,NA,NA,NA,image-keyboard-response,91,307406,0.0-7.0-0.0-0.13,24,Study 24,Session 24,NA,139,img/testing_events/Ca/Test_Ca_Event_24.jpg,u,response,n,NA,FALSE,Ca
NA,NA,NA,NA,NA,image-keyboard-response,92,307731,0.0-7.0-0.0-0.14,24,Study 24,Session 24,NA,321,img/testing_events/Ca/Test_Ca_Event_2.jpg,e,response,u,NA,FALSE,Ca
NA,NA,NA,NA,NA,image-keyboard-response,93,307928,0.0-7.0-0.0-0.15,24,Study 24,Session 24,NA,195,img/testing_events/Ca/Test_Ca_Event_22.jpg,n,response,u,NA,FALSE,Ca
NA,NA,NA,NA,NA,image-keyboard-response,94,308273,0.0-7.0-0.0-0.16,24,Study 24,Session 24,NA,341,img/testing_events/Ca/Test_Ca_Event_21.jpg,c,response,e,NA,FALSE,Ca
NA,NA,NA,NA,NA,image-keyboard-response,95,308514,0.0-7.0-0.0-0.17,24,Study 24,Session 24,NA,239,img/testing_events/Ca/Test_Ca_Event_19.jpg,u,response,c,NA,FALSE,Ca
NA,NA,NA,NA,NA,image-keyboard-response,96,308817,0.0-7.0-0.0-0.18,24,Study 24,Session 24,NA,300,img/testing_events/Ca/Test_Ca_Event_5.jpg,e,response,e,NA,TRUE,Ca
NA,NA,NA,NA,NA,image-keyboard-response,97,309172,0.0-7.0-0.0-0.19,24,Study 24,Session 24,NA,351,img/testing_events/Ca/Test_Ca_Event_10.jpg,c,response,u,NA,FALSE,Ca
NA,NA,NA,NA,NA,image-keyboard-response,98,309279,0.0-7.0-0.0-0.20,24,Study 24,Session 24,NA,105,img/testing_events/Ca/Test_Ca_Event_23.jpg,n,response,c,NA,FALSE,Ca
NA,NA,NA,NA,NA,image-keyboard-response,99,309577,0.0-7.0-0.0-0.21,24,Study 24,Session 24,NA,294,img/testing_events/Ca/Test_Ca_Event_3.jpg,u,response,c,NA,FALSE,Ca
NA,NA,NA,NA,NA,image-keyboard-response,100,310033,0.0-7.0-0.0-0.22,24,Study 24,Session 24,NA,453,img/testing_events/Ca/Test_Ca_Event_15.jpg,e,response,c,NA,FALSE,Ca
NA,NA,NA,NA,NA,image-keyboard-response,101,310308,0.0-7.0-0.0-0.23,24,Study 24,Session 24,NA,272,img/testing_events/Ca/Test_Ca_Event_11.jpg,c,response,c,NA,TRUE,Ca
NA,NA,NA,NA,NA,image-keyboard-response,102,310455,0.0-7.0-1.0-0.0,24,Study 24,Session 24,NA,143,img/testing_events/Ba/Test_Ba_Event_12.jpg,n,response,u,NA,FALSE,Ba
NA,NA,NA,NA,NA,image-keyboard-response,103,310689,0.0-7.0-1.0-0.1,24,Study 24,Session 24,NA,231,img/testing_events/Ba/Test_Ba_Event_6.jpg,e,response,n,NA,FALSE,Ba
NA,NA,NA,NA,NA,image-keyboard-response,104,311036,0.0-7.0-1.0-0.2,24,Study 24,Session 24,NA,343,img/testing_events/Ba/Test_Ba_Event_21.jpg,u,response,c,NA,FALSE,Ba
NA,NA,NA,NA,NA,image-keyboard-response,105,311394,0.0-7.0-1.0-0.3,24,Study 24,Session 24,NA,354,img/testing_events/Ba/Test_Ba_Event_8.jpg,c,response,u,NA,FALSE,Ba
NA,NA,NA,NA,NA,image-keyboard-response,106,311549,0.0-7.0-1.0-0.4,24,Study 24,Session 24,NA,151,img/testing_events/Ba/Test_Ba_Event_5.jpg,n,response,c,NA,FALSE,Ba
NA,NA,NA,NA,NA,image-keyboard-response,107,311729,0.0-7.0-1.0-0.5,24,Study 24,Session 24,NA,178,img/testing_events/Ba/Test_Ba_Event_22.jpg,e,response,n,NA,FALSE,Ba
NA,NA,NA,NA,NA,image-keyboard-response,108,311886,0.0-7.0-1.0-0.6,24,Study 24,Session 24,NA,155,img/testing_events/Ba/Test_Ba_Event_19.jpg,u,response,e,NA,FALSE,Ba
NA,NA,NA,NA,NA,image-keyboard-response,109,312152,0.0-7.0-1.0-0.7,24,Study 24,Session 24,NA,263,img/testing_events/Ba/Test_Ba_Event_3.jpg,c,response,e,NA,FALSE,Ba
NA,NA,NA,NA,NA,image-keyboard-response,110,312431,0.0-7.0-1.0-0.8,24,Study 24,Session 24,NA,276,img/testing_events/Ba/Test_Ba_Event_23.jpg,n,response,e,NA,FALSE,Ba
NA,NA,NA,NA,NA,image-keyboard-response,111,312572,0.0-7.0-1.0-0.9,24,Study 24,Session 24,NA,137,img/testing_events/Ba/Test_Ba_Event_24.jpg,e,response,u,NA,FALSE,Ba
NA,NA,NA,NA,NA,image-keyboard-response,112,312703,0.0-7.0-1.0-0.10,24,Study 24,Session 24,NA,126,img/testing_events/Ba/Test_Ba_Event_2.jpg,u,response,n,NA,FALSE,Ba
NA,NA,NA,NA,NA,image-keyboard-response,113,312855,0.0-7.0-1.0-0.11,24,Study 24,Session 24,NA,150,img/testing_events/Ba/Test_Ba_Event_9.jpg,c,response,c,NA,TRUE,Ba
NA,NA,NA,NA,NA,image-keyboard-response,114,312948,0.0-7.0-1.0-0.12,24,Study 24,Session 24,NA,90,img/testing_events/Ba/Test_Ba_Event_7.jpg,n,response,e,NA,FALSE,Ba
NA,NA,NA,NA,NA,image-keyboard-response,115,313127,0.0-7.0-1.0-0.13,24,Study 24,Session 24,NA,176,img/testing_events/Ba/Test_Ba_Event_20.jpg,e,response,u,NA,FALSE,Ba
NA,NA,NA,NA,NA,image-keyboard-response,116,313275,0.0-7.0-1.0-0.14,24,Study 24,Session 24,NA,145,img/testing_events/Ba/Test_Ba_Event_13.jpg,u,response,c,NA,FALSE,Ba
NA,NA,NA,NA,NA,image-keyboard-response,117,313483,0.0-7.0-1.0-0.15,24,Study 24,Session 24,NA,202,img/testing_events/Ba/Test_Ba_Event_15.jpg,c,response,e,NA,FALSE,Ba
NA,NA,NA,NA,NA,image-keyboard-response,118,313802,0.0-7.0-1.0-0.16,24,Study 24,Session 24,NA,316,img/testing_events/Ba/Test_Ba_Event_4.jpg,n,response,u,NA,FALSE,Ba
NA,NA,NA,NA,NA,image-keyboard-response,119,313993,0.0-7.0-1.0-0.17,24,Study 24,Session 24,NA,188,img/testing_events/Ba/Test_Ba_Event_16.jpg,e,response,u,NA,FALSE,Ba
NA,NA,NA,NA,NA,image-keyboard-response,120,314102,0.0-7.0-1.0-0.18,24,Study 24,Session 24,NA,106,img/testing_events/Ba/Test_Ba_Event_11.jpg,u,response,e,NA,FALSE,Ba
NA,NA,NA,NA,NA,image-keyboard-response,121,314298,0.0-7.0-1.0-0.19,24,Study 24,Session 24,NA,193,img/testing_events/Ba/Test_Ba_Event_18.jpg,c,response,n,NA,FALSE,Ba
NA,NA,NA,NA,NA,image-keyboard-response,122,314425,0.0-7.0-1.0-0.20,24,Study 24,Session 24,NA,124,img/testing_events/Ba/Test_Ba_Event_17.jpg,n,response,c,NA,FALSE,Ba
NA,NA,NA,NA,NA,image-keyboard-response,123,314610,0.0-7.0-1.0-0.21,24,Study 24,Session 24,NA,182,img/testing_events/Ba/Test_Ba_Event_14.jpg,e,response,n,NA,FALSE,Ba
NA,NA,NA,NA,NA,image-keyboard-response,124,314757,0.0-7.0-1.0-0.22,24,Study 24,Session 24,NA,144,img/testing_events/Ba/Test_Ba_Event_1.jpg,u,response,c,NA,FALSE,Ba
NA,NA,NA,NA,NA,image-keyboard-response,125,314939,0.0-7.0-1.0-0.23,24,Study 24,Session 24,NA,177,img/testing_events/Ba/Test_Ba_Event_10.jpg,c,response,n,NA,FALSE,Ba
NA,NA,NA,NA,NA,image-keyboard-response,126,315061,0.0-7.0-2.0-0.0,24,Study 24,Session 24,NA,118,img/testing_events/Ab/Test_Ab_Event_6.jpg,n,response,u,NA,FALSE,Ab
NA,NA,NA,NA,NA,image-keyboard-response,127,315209,0.0-7.0-2.0-0.1,24,Study 24,Session 24,NA,146,img/testing_events/Ab/Test_Ab_Event_18.jpg,e,response,u,NA,FALSE,Ab
NA,NA,NA,NA,NA,image-keyboard-response,128,315466,0.0-7.0-2.0-0.2,24,Study 24,Session 24,NA,254,img/testing_events/Ab/Test_Ab_Event_10.jpg,u,response,u,NA,TRUE,Ab
NA,NA,NA,NA,NA,image-keyboard-response,129,315639,0.0-7.0-2.0-0.3,24,Study 24,Session 24,NA,169,img/testing_events/Ab/Test_Ab_Event_12.jpg,c,response,n,NA,FALSE,Ab
NA,NA,NA,NA,NA,image-keyboard-response,130,315777,0.0-7.0-2.0-0.4,24,Study 24,Session 24,NA,135,img/testing_events/Ab/Test_Ab_Event_19.jpg,n,response,c,NA,FALSE,Ab
NA,NA,NA,NA,NA,image-keyboard-response,131,315941,0.0-7.0-2.0-0.5,24,Study 24,Session 24,NA,161,img/testing_events/Ab/Test_Ab_Event_16.jpg,e,response,n,NA,FALSE,Ab
NA,NA,NA,NA,NA,image-keyboard-response,132,316248,0.0-7.0-2.0-0.6,24,Study 24,Session 24,NA,303,img/testing_events/Ab/Test_Ab_Event_23.jpg,u,response,c,NA,FALSE,Ab
NA,NA,NA,NA,NA,image-keyboard-response,133,316437,0.0-7.0-2.0-0.7,24,Study 24,Session 24,NA,187,img/testing_events/Ab/Test_Ab_Event_4.jpg,c,response,n,NA,FALSE,Ab
NA,NA,NA,NA,NA,image-keyboard-response,134,316599,0.0-7.0-2.0-0.8,24,Study 24,Session 24,NA,158,img/testing_events/Ab/Test_Ab_Event_9.jpg,n,response,e,NA,FALSE,Ab
NA,NA,NA,NA,NA,image-keyboard-response,135,316763,0.0-7.0-2.0-0.9,24,Study 24,Session 24,NA,161,img/testing_events/Ab/Test_Ab_Event_15.jpg,e,response,c,NA,FALSE,Ab
NA,NA,NA,NA,NA,image-keyboard-response,136,316937,0.0-7.0-2.0-0.10,24,Study 24,Session 24,NA,171,img/testing_events/Ab/Test_Ab_Event_13.jpg,u,response,e,NA,FALSE,Ab
NA,NA,NA,NA,NA,image-keyboard-response,137,317089,0.0-7.0-2.0-0.11,24,Study 24,Session 24,NA,149,img/testing_events/Ab/Test_Ab_Event_24.jpg,c,response,n,NA,FALSE,Ab
NA,NA,NA,NA,NA,image-keyboard-response,138,317221,0.0-7.0-2.0-0.12,24,Study 24,Session 24,NA,129,img/testing_events/Ab/Test_Ab_Event_21.jpg,n,response,e,NA,FALSE,Ab
NA,NA,NA,NA,NA,image-keyboard-response,139,317682,0.0-7.0-2.0-0.13,24,Study 24,Session 24,NA,456,img/testing_events/Ab/Test_Ab_Event_5.jpg,e,response,e,NA,TRUE,Ab
NA,NA,NA,NA,NA,image-keyboard-response,140,317902,0.0-7.0-2.0-0.14,24,Study 24,Session 24,NA,216,img/testing_events/Ab/Test_Ab_Event_7.jpg,u,response,c,NA,FALSE,Ab
NA,NA,NA,NA,NA,image-keyboard-response,141,318179,0.0-7.0-2.0-0.15,24,Study 24,Session 24,NA,274,img/testing_events/Ab/Test_Ab_Event_1.jpg,c,response,e,NA,FALSE,Ab
NA,NA,NA,NA,NA,image-keyboard-response,142,318266,0.0-7.0-2.0-0.16,24,Study 24,Session 24,NA,84,img/testing_events/Ab/Test_Ab_Event_14.jpg,n,response,u,NA,FALSE,Ab
NA,NA,NA,NA,NA,image-keyboard-response,143,318472,0.0-7.0-2.0-0.17,24,Study 24,Session 24,NA,202,img/testing_events/Ab/Test_Ab_Event_20.jpg,e,response,n,NA,FALSE,Ab
NA,NA,NA,NA,NA,image-keyboard-response,144,318633,0.0-7.0-2.0-0.18,24,Study 24,Session 24,NA,159,img/testing_events/Ab/Test_Ab_Event_3.jpg,u,response,c,NA,FALSE,Ab
NA,NA,NA,NA,NA,image-keyboard-response,145,318827,0.0-7.0-2.0-0.19,24,Study 24,Session 24,NA,192,img/testing_events/Ab/Test_Ab_Event_17.jpg,c,response,e,NA,FALSE,Ab
NA,NA,NA,NA,NA,image-keyboard-response,146,318923,0.0-7.0-2.0-0.20,24,Study 24,Session 24,NA,93,img/testing_events/Ab/Test_Ab_Event_2.jpg,n,response,u,NA,FALSE,Ab
NA,NA,NA,NA,NA,image-keyboard-response,147,319126,0.0-7.0-2.0-0.21,24,Study 24,Session 24,NA,200,img/testing_events/Ab/Test_Ab_Event_11.jpg,e,response,c,NA,FALSE,Ab
NA,NA,NA,NA,NA,image-keyboard-response,148,319269,0.0-7.0-2.0-0.22,24,Study 24,Session 24,NA,140,img/testing_events/Ab/Test_Ab_Event_8.jpg,u,response,n,NA,FALSE,Ab
NA,NA,NA,NA,NA,image-keyboard-response,149,319472,0.0-7.0-2.0-0.23,24,Study 24,Session 24,NA,200,img/testing_events/Ab/Test_Ab_Event_22.jpg,c,response,u,NA,FALSE,Ab
NA,NA,NA,NA,NA,image-keyboard-response,150,319587,0.0-7.0-3.0-0.0,24,Study 24,Session 24,NA,112,img/testing_events/Bc/Test_Bc_Event_1.jpg,n,response,n,NA,TRUE,Bc
NA,NA,NA,NA,NA,image-keyboard-response,151,319743,0.0-7.0-3.0-0.1,24,Study 24,Session 24,NA,153,img/testing_events/Bc/Test_Bc_Event_3.jpg,e,response,u,NA,FALSE,Bc
NA,NA,NA,NA,NA,image-keyboard-response,152,319888,0.0-7.0-3.0-0.2,24,Study 24,Session 24,NA,143,img/testing_events/Bc/Test_Bc_Event_24.jpg,u,response,c,NA,FALSE,Bc
NA,NA,NA,NA,NA,image-keyboard-response,153,320032,0.0-7.0-3.0-0.3,24,Study 24,Session 24,NA,142,img/testing_events/Bc/Test_Bc_Event_13.jpg,c,response,n,NA,FALSE,Bc
NA,NA,NA,NA,NA,image-keyboard-response,154,320148,0.0-7.0-3.0-0.4,24,Study 24,Session 24,NA,113,img/testing_events/Bc/Test_Bc_Event_18.jpg,n,response,e,NA,FALSE,Bc
NA,NA,NA,NA,NA,image-keyboard-response,155,320290,0.0-7.0-3.0-0.5,24,Study 24,Session 24,NA,141,img/testing_events/Bc/Test_Bc_Event_17.jpg,e,response,n,NA,FALSE,Bc
NA,NA,NA,NA,NA,image-keyboard-response,156,320448,0.0-7.0-3.0-0.6,24,Study 24,Session 24,NA,156,img/testing_events/Bc/Test_Bc_Event_14.jpg,u,response,e,NA,FALSE,Bc
NA,NA,NA,NA,NA,image-keyboard-response,157,320606,0.0-7.0-3.0-0.7,24,Study 24,Session 24,NA,155,img/testing_events/Bc/Test_Bc_Event_20.jpg,c,response,c,NA,TRUE,Bc
NA,NA,NA,NA,NA,image-keyboard-response,158,320712,0.0-7.0-3.0-0.8,24,Study 24,Session 24,NA,104,img/testing_events/Bc/Test_Bc_Event_4.jpg,n,response,c,NA,FALSE,Bc
NA,NA,NA,NA,NA,image-keyboard-response,159,320902,0.0-7.0-3.0-0.9,24,Study 24,Session 24,NA,188,img/testing_events/Bc/Test_Bc_Event_12.jpg,e,response,c,NA,FALSE,Bc
NA,NA,NA,NA,NA,image-keyboard-response,160,321050,0.0-7.0-3.0-0.10,24,Study 24,Session 24,NA,146,img/testing_events/Bc/Test_Bc_Event_7.jpg,u,response,u,NA,TRUE,Bc
NA,NA,NA,NA,NA,image-keyboard-response,161,321188,0.0-7.0-3.0-0.11,24,Study 24,Session 24,NA,136,img/testing_events/Bc/Test_Bc_Event_10.jpg,c,response,e,NA,FALSE,Bc
NA,NA,NA,NA,NA,image-keyboard-response,162,321318,0.0-7.0-3.0-0.12,24,Study 24,Session 24,NA,127,img/testing_events/Bc/Test_Bc_Event_15.jpg,n,response,u,NA,FALSE,Bc
NA,NA,NA,NA,NA,image-keyboard-response,163,321483,0.0-7.0-3.0-0.13,24,Study 24,Session 24,NA,161,img/testing_events/Bc/Test_Bc_Event_8.jpg,e,response,c,NA,FALSE,Bc
NA,NA,NA,NA,NA,image-keyboard-response,164,321636,0.0-7.0-3.0-0.14,24,Study 24,Session 24,NA,150,img/testing_events/Bc/Test_Bc_Event_22.jpg,u,response,e,NA,FALSE,Bc
NA,NA,NA,NA,NA,image-keyboard-response,165,321790,0.0-7.0-3.0-0.15,24,Study 24,Session 24,NA,151,img/testing_events/Bc/Test_Bc_Event_11.jpg,c,response,u,NA,FALSE,Bc
NA,NA,NA,NA,NA,image-keyboard-response,166,321920,0.0-7.0-3.0-0.16,24,Study 24,Session 24,NA,128,img/testing_events/Bc/Test_Bc_Event_9.jpg,n,response,n,NA,TRUE,Bc
NA,NA,NA,NA,NA,image-keyboard-response,167,322086,0.0-7.0-3.0-0.17,24,Study 24,Session 24,NA,162,img/testing_events/Bc/Test_Bc_Event_19.jpg,e,response,u,NA,FALSE,Bc
NA,NA,NA,NA,NA,image-keyboard-response,168,322186,0.0-7.0-3.0-0.18,24,Study 24,Session 24,NA,97,img/testing_events/Bc/Test_Bc_Event_2.jpg,u,response,e,NA,FALSE,Bc
NA,NA,NA,NA,NA,image-keyboard-response,169,322369,0.0-7.0-3.0-0.19,24,Study 24,Session 24,NA,180,img/testing_events/Bc/Test_Bc_Event_6.jpg,c,response,e,NA,FALSE,Bc
NA,NA,NA,NA,NA,image-keyboard-response,170,322523,0.0-7.0-3.0-0.20,24,Study 24,Session 24,NA,150,img/testing_events/Bc/Test_Bc_Event_16.jpg,n,response,c,NA,FALSE,Bc
NA,NA,NA,NA,NA,image-keyboard-response,171,322664,0.0-7.0-3.0-0.21,24,Study 24,Session 24,NA,139,img/testing_events/Bc/Test_Bc_Event_21.jpg,e,response,n,NA,FALSE,Bc
NA,NA,NA,NA,NA,image-keyboard-response,172,322782,0.0-7.0-3.0-0.22,24,Study 24,Session 24,NA,116,img/testing_events/Bc/Test_Bc_Event_5.jpg,u,response,n,NA,FALSE,Bc
NA,NA,NA,NA,NA,image-keyboard-response,173,322942,0.0-7.0-3.0-0.23,24,Study 24,Session 24,NA,157,img/testing_events/Bc/Test_Bc_Event_23.jpg,c,response,u,NA,FALSE,Bc
NA,NA,NA,NA,NA,image-keyboard-response,174,323044,0.0-7.0-4.0-0.0,24,Study 24,Session 24,NA,97,img/testing_events/Cb/Test_Cb_Event_6.jpg,n,response,c,NA,FALSE,Cb
NA,NA,NA,NA,NA,image-keyboard-response,175,323183,0.0-7.0-4.0-0.1,24,Study 24,Session 24,NA,135,img/testing_events/Cb/Test_Cb_Event_24.jpg,e,response,e,NA,TRUE,Cb
NA,NA,NA,NA,NA,image-keyboard-response,176,323333,0.0-7.0-4.0-0.2,24,Study 24,Session 24,NA,147,img/testing_events/Cb/Test_Cb_Event_23.jpg,u,response,n,NA,FALSE,Cb
NA,NA,NA,NA,NA,image-keyboard-response,177,323475,0.0-7.0-4.0-0.3,24,Study 24,Session 24,NA,137,img/testing_events/Cb/Test_Cb_Event_16.jpg,c,response,e,NA,FALSE,Cb
NA,NA,NA,NA,NA,image-keyboard-response,178,323592,0.0-7.0-4.0-0.4,24,Study 24,Session 24,NA,113,img/testing_events/Cb/Test_Cb_Event_11.jpg,n,response,n,NA,TRUE,Cb
NA,NA,NA,NA,NA,image-keyboard-response,179,323714,0.0-7.0-4.0-0.5,24,Study 24,Session 24,NA,118,img/testing_events/Cb/Test_Cb_Event_13.jpg,e,response,u,NA,FALSE,Cb
NA,NA,NA,NA,NA,image-keyboard-response,180,323849,0.0-7.0-4.0-0.6,24,Study 24,Session 24,NA,130,img/testing_events/Cb/Test_Cb_Event_4.jpg,u,response,e,NA,FALSE,Cb
NA,NA,NA,NA,NA,image-keyboard-response,181,323973,0.0-7.0-4.0-0.7,24,Study 24,Session 24,NA,120,img/testing_events/Cb/Test_Cb_Event_10.jpg,c,response,c,NA,TRUE,Cb
NA,NA,NA,NA,NA,image-keyboard-response,182,324105,0.0-7.0-4.0-0.8,24,Study 24,Session 24,NA,129,img/testing_events/Cb/Test_Cb_Event_2.jpg,n,response,c,NA,FALSE,Cb
NA,NA,NA,NA,NA,image-keyboard-response,183,324241,0.0-7.0-4.0-0.9,24,Study 24,Session 24,NA,133,img/testing_events/Cb/Test_Cb_Event_22.jpg,e,response,c,NA,FALSE,Cb
NA,NA,NA,NA,NA,image-keyboard-response,184,324386,0.0-7.0-4.0-0.10,24,Study 24,Session 24,NA,142,img/testing_events/Cb/Test_Cb_Event_8.jpg,u,response,e,NA,FALSE,Cb
NA,NA,NA,NA,NA,image-keyboard-response,185,324511,0.0-7.0-4.0-0.11,24,Study 24,Session 24,NA,122,img/testing_events/Cb/Test_Cb_Event_18.jpg,c,response,c,NA,TRUE,Cb
NA,NA,NA,NA,NA,image-keyboard-response,186,324646,0.0-7.0-4.0-0.12,24,Study 24,Session 24,NA,130,img/testing_events/Cb/Test_Cb_Event_12.jpg,n,response,e,NA,FALSE,Cb
NA,NA,NA,NA,NA,image-keyboard-response,187,324752,0.0-7.0-4.0-0.13,24,Study 24,Session 24,NA,102,img/testing_events/Cb/Test_Cb_Event_20.jpg,e,response,e,NA,TRUE,Cb
NA,NA,NA,NA,NA,image-keyboard-response,188,324907,0.0-7.0-4.0-0.14,24,Study 24,Session 24,NA,152,img/testing_events/Cb/Test_Cb_Event_5.jpg,u,response,u,NA,TRUE,Cb
NA,NA,NA,NA,NA,image-keyboard-response,189,325030,0.0-7.0-4.0-0.15,24,Study 24,Session 24,NA,120,img/testing_events/Cb/Test_Cb_Event_14.jpg,c,response,c,NA,TRUE,Cb
NA,NA,NA,NA,NA,image-keyboard-response,190,325212,0.0-7.0-4.0-0.16,24,Study 24,Session 24,NA,179,img/testing_events/Cb/Test_Cb_Event_1.jpg,n,response,u,NA,FALSE,Cb
NA,NA,NA,NA,NA,image-keyboard-response,191,325352,0.0-7.0-4.0-0.17,24,Study 24,Session 24,NA,136,img/testing_events/Cb/Test_Cb_Event_21.jpg,e,response,u,NA,FALSE,Cb
NA,NA,NA,NA,NA,image-keyboard-response,192,325527,0.0-7.0-4.0-0.18,24,Study 24,Session 24,NA,171,img/testing_events/Cb/Test_Cb_Event_9.jpg,u,response,u,NA,TRUE,Cb
NA,NA,NA,NA,NA,image-keyboard-response,193,325673,0.0-7.0-4.0-0.19,24,Study 24,Session 24,NA,142,img/testing_events/Cb/Test_Cb_Event_17.jpg,c,response,u,NA,FALSE,Cb
NA,NA,NA,NA,NA,image-keyboard-response,194,325849,0.0-7.0-4.0-0.20,24,Study 24,Session 24,NA,172,img/testing_events/Cb/Test_Cb_Event_19.jpg,n,response,n,NA,TRUE,Cb
NA,NA,NA,NA,NA,image-keyboard-response,195,325964,0.0-7.0-4.0-0.21,24,Study 24,Session 24,NA,114,img/testing_events/Cb/Test_Cb_Event_3.jpg,e,response,n,NA,FALSE,Cb
NA,NA,NA,NA,NA,image-keyboard-response,196,326133,0.0-7.0-4.0-0.22,24,Study 24,Session 24,NA,166,img/testing_events/Cb/Test_Cb_Event_15.jpg,u,response,n,NA,FALSE,Cb
NA,NA,NA,NA,NA,image-keyboard-response,197,326280,0.0-7.0-4.0-0.23,24,Study 24,Session 24,NA,142,img/testing_events/Cb/Test_Cb_Event_7.jpg,c,response,n,NA,FALSE,Cb
NA,NA,NA,NA,NA,image-keyboard-response,198,326429,0.0-7.0-5.0-0.0,24,Study 24,Session 24,NA,145,img/testing_events/Ac/Test_Ac_Event_11.jpg,n,response,n,NA,TRUE,Ac
NA,NA,NA,NA,NA,image-keyboard-response,199,326562,0.0-7.0-5.0-0.1,24,Study 24,Session 24,NA,130,img/testing_events/Ac/Test_Ac_Event_24.jpg,e,response,e,NA,TRUE,Ac
NA,NA,NA,NA,NA,image-keyboard-response,200,326838,0.0-7.0-5.0-0.2,24,Study 24,Session 24,NA,272,img/testing_events/Ac/Test_Ac_Event_3.jpg,u,response,n,NA,FALSE,Ac
NA,NA,NA,NA,NA,image-keyboard-response,201,327013,0.0-7.0-5.0-0.3,24,Study 24,Session 24,NA,169,img/testing_events/Ac/Test_Ac_Event_14.jpg,c,response,c,NA,TRUE,Ac
NA,NA,NA,NA,NA,image-keyboard-response,202,327139,0.0-7.0-5.0-0.4,24,Study 24,Session 24,NA,122,img/testing_events/Ac/Test_Ac_Event_17.jpg,n,response,u,NA,FALSE,Ac
NA,NA,NA,NA,NA,image-keyboard-response,203,327274,0.0-7.0-5.0-0.5,24,Study 24,Session 24,NA,132,img/testing_events/Ac/Test_Ac_Event_7.jpg,e,response,n,NA,FALSE,Ac
NA,NA,NA,NA,NA,image-keyboard-response,204,327419,0.0-7.0-5.0-0.6,24,Study 24,Session 24,NA,141,img/testing_events/Ac/Test_Ac_Event_2.jpg,u,response,c,NA,FALSE,Ac
NA,NA,NA,NA,NA,image-keyboard-response,205,327564,0.0-7.0-5.0-0.7,24,Study 24,Session 24,NA,142,img/testing_events/Ac/Test_Ac_Event_19.jpg,c,response,n,NA,FALSE,Ac
NA,NA,NA,NA,NA,image-keyboard-response,206,327703,0.0-7.0-5.0-0.8,24,Study 24,Session 24,NA,135,img/testing_events/Ac/Test_Ac_Event_16.jpg,n,response,e,NA,FALSE,Ac
NA,NA,NA,NA,NA,image-keyboard-response,207,327848,0.0-7.0-5.0-0.9,24,Study 24,Session 24,NA,142,img/testing_events/Ac/Test_Ac_Event_21.jpg,e,response,u,NA,FALSE,Ac
NA,NA,NA,NA,NA,image-keyboard-response,208,327997,0.0-7.0-5.0-0.10,24,Study 24,Session 24,NA,145,img/testing_events/Ac/Test_Ac_Event_1.jpg,u,response,u,NA,TRUE,Ac
NA,NA,NA,NA,NA,image-keyboard-response,209,328183,0.0-7.0-5.0-0.11,24,Study 24,Session 24,NA,183,img/testing_events/Ac/Test_Ac_Event_13.jpg,c,response,u,NA,FALSE,Ac
NA,NA,NA,NA,NA,image-keyboard-response,210,328260,0.0-7.0-5.0-0.12,24,Study 24,Session 24,NA,72,img/testing_events/Ac/Test_Ac_Event_10.jpg,n,response,c,NA,FALSE,Ac
NA,NA,NA,NA,NA,image-keyboard-response,211,328461,0.0-7.0-5.0-0.13,24,Study 24,Session 24,NA,197,img/testing_events/Ac/Test_Ac_Event_23.jpg,e,response,n,NA,FALSE,Ac
NA,NA,NA,NA,NA,image-keyboard-response,212,328603,0.0-7.0-5.0-0.14,24,Study 24,Session 24,NA,138,img/testing_events/Ac/Test_Ac_Event_22.jpg,u,response,c,NA,FALSE,Ac
NA,NA,NA,NA,NA,image-keyboard-response,213,328804,0.0-7.0-5.0-0.15,24,Study 24,Session 24,NA,198,img/testing_events/Ac/Test_Ac_Event_15.jpg,c,response,n,NA,FALSE,Ac
NA,NA,NA,NA,NA,image-keyboard-response,214,328921,0.0-7.0-5.0-0.16,24,Study 24,Session 24,NA,115,img/testing_events/Ac/Test_Ac_Event_20.jpg,n,response,e,NA,FALSE,Ac
NA,NA,NA,NA,NA,image-keyboard-response,215,329061,0.0-7.0-5.0-0.17,24,Study 24,Session 24,NA,136,img/testing_events/Ac/Test_Ac_Event_12.jpg,e,response,e,NA,TRUE,Ac
NA,NA,NA,NA,NA,image-keyboard-response,216,329210,0.0-7.0-5.0-0.18,24,Study 24,Session 24,NA,143,img/testing_events/Ac/Test_Ac_Event_9.jpg,u,response,u,NA,TRUE,Ac
NA,NA,NA,NA,NA,image-keyboard-response,217,329378,0.0-7.0-5.0-0.19,24,Study 24,Session 24,NA,163,img/testing_events/Ac/Test_Ac_Event_4.jpg,c,response,e,NA,FALSE,Ac
NA,NA,NA,NA,NA,image-keyboard-response,218,329502,0.0-7.0-5.0-0.20,24,Study 24,Session 24,NA,121,img/testing_events/Ac/Test_Ac_Event_8.jpg,n,response,e,NA,FALSE,Ac
NA,NA,NA,NA,NA,image-keyboard-response,219,329689,0.0-7.0-5.0-0.21,24,Study 24,Session 24,NA,182,img/testing_events/Ac/Test_Ac_Event_5.jpg,e,response,u,NA,FALSE,Ac
NA,NA,NA,NA,NA,image-keyboard-response,220,329839,0.0-7.0-5.0-0.22,24,Study 24,Session 24,NA,147,img/testing_events/Ac/Test_Ac_Event_18.jpg,u,response,c,NA,FALSE,Ac
NA,NA,NA,NA,NA,image-keyboard-response,221,330027,0.0-7.0-5.0-0.23,24,Study 24,Session 24,NA,183,img/testing_events/Ac/Test_Ac_Event_6.jpg,c,response,c,NA,TRUE,Ac
NA,NA,NA,NA,NA,survey-text,222,342321,0.0-8.0,24,Study 24,Session 24,NA,12290,NA,"{""Q0"":""No"",""Q1"":""No"",""Q2"":""thank you.""}",NA,NA,NA,NA,NA
NA,NA,NA,NA,NA,survey-html-form,223,365880,0.0-9.0,24,Study 24,Session 24,NA,23557,NA,"{""Gender"":""Male"",""Age"":""28"",""ColorBlind"":""No"",""Education"":""Some College, no degree"",""Income"":""$0-$24,999"",""Race"":""Asian/Pacific Islander"",""Fluent"":""Yes"",""AgeEnglish"":""0"",""Country"":""United States""}",NA,NA,NA,NA,NA
TRUE,NA,NA,NA,NA,fullscreen,224,365881,0.0-10.0,24,Study 24,Session 24,NA,NA,NA,NA,NA,NA,NA,NA,NA
