success,timeout,failed_images,failed_audio,failed_video,trial_type,trial_index,time_elapsed,internal_node_id,subject_id,study_id,session_id,view_history,rt,stimulus,response,task,correct_response,attention_duration,correct,retrieval_group
TRUE,FALSE,[],[],[],preload,0,1967,0.0-0.0,37,Study 37,Session 37,NA,NA,NA,NA,NA,NA,NA,NA,NA
TRUE,NA,NA,NA,NA,fullscreen,1,4311,0.0-1.0,37,Study 37,Session 37,NA,NA,NA,NA,NA,NA,NA,NA,NA
NA,NA,NA,NA,NA,instructions,2,10049,0.0-2.0,37,Study 37,Session 37,"[{""page_index"":0,""viewing_time"":5738}]",5738,NA,NA,NA,NA,NA,NA,NA
NA,NA,NA,NA,NA,html-keyboard-response,3,17469,0.0-3.0,37,Study 37,Session 37,NA,7419,"Welcome to the experiment. <br /><br />This experiment will take about 20 minutes. Please complete all in one sitting. <br /><br />For this study, <strong>please use</strong> a laptop or desktop computer (not a mobile phone or tablet). Also, please use either <u>Chrome or Firefox</u>. <br /><br />Once you begin, <strong>DO NOT</strong> refresh the browser, as the experiment will reset and you will lose your progress. <br /><br />Press the <strong class=""upperline"">B</strong> key on your keyboard to begin.",b,NA,NA,NA,NA,NA
NA,NA,NA,NA,NA,instructions,4,40372,0.0-4.0,37,Study 37,Session 37,"[{""page_index"":0,""viewing_time"":9668},{""page_index"":1,""viewing_time"":10023},{""page_index"":2,""viewing_time"":2197}]",21889,NA,NA,NA,NA,NA,NA,NA
NA,NA,NA,NA,NA,html-keyboard-response,5,43392,0.0-5.0-0.0,37,Study 37,Session 37,NA,null,"<div style=""font-size:60px;"">+</div>",null,fixation,NA,NA,NA,NA
NA,NA,NA,NA,NA,image-keyboard-response,6,49409,0.0-5.0-1.0,37,Study 37,Session 37,NA,null,img/encoding_events/Event_1.jpg,null,NA,NA,NA,NA,NA
NA,NA,NA,NA,NA,html-keyboard-response,7,49409,0.0-5.0-2.0,37,Study 37,Session 37,NA,null,Please press the <strong><u>a</u></strong> key to continue,null,response,a,0,FALSE,NA
NA,NA,NA,NA,NA,html-keyboard-response,8,49921,0.0-5.0-0.1,37,Study 37,Session 37,NA,null,"<div style=""font-size:60px;"">+</div>",null,fixation,NA,NA,NA,NA
NA,NA,NA,NA,NA,image-keyboard-response,9,55935,0.0-5.0-1.1,37,Study 37,Session 37,NA,null,img/encoding_events/Event_2.jpg,null,NA,NA,NA,NA,NA
NA,NA,NA,NA,NA,html-keyboard-response,10,55940,0.0-5.0-2.1,37,Study 37,Session 37,NA,null,Please press the <strong><u>a</u></strong> key to continue,null,response,a,0,FALSE,NA
NA,NA,NA,NA,NA,html-keyboard-response,11,56446,0.0-5.0-0.2,37,Study 37,Session 37,NA,null,"<div style=""font-size:60px;"">+</div>",null,fixation,NA,NA,NA,NA
NA,NA,NA,NA,NA,image-keyboard-response,12,62460,0.0-5.0-1.2,37,Study 37,Session 37,NA,null,img/encoding_events/Event_16.jpg,null,NA,NA,NA,NA,NA
NA,NA,NA,NA,NA,html-keyboard-response,13,62469,0.0-5.0-2.2,37,Study 37,Session 37,NA,null,Please press the <strong><u>d</u></strong> key to continue,null,response,d,0,FALSE,NA
NA,NA,NA,NA,NA,html-keyboard-response,14,62974,0.0-5.0-0.3,37,Study 37,Session 37,NA,null,"<div style=""font-size:60px;"">+</div>",null,fixation,NA,NA,NA,NA
NA,NA,NA,NA,NA,image-keyboard-response,15,68986,0.0-5.0-1.3,37,Study 37,Session 37,NA,null,img/encoding_events/Event_24.jpg,null,NA,NA,NA,NA,NA
NA,NA,NA,NA,NA,html-keyboard-response,16,71535,0.0-5.0-2.3,37,Study 37,Session 37,NA,2548,Please press the <strong><u>j</u></strong> key to continue,j,response,j,6000,TRUE,NA
NA,NA,NA,NA,NA,html-keyboard-response,17,72048,0.0-5.0-0.4,37,Study 37,Session 37,NA,null,"<div style=""font-size:60px;"">+</div>",null,fixation,NA,NA,NA,NA
NA,NA,NA,NA,NA,image-keyboard-response,18,78060,0.0-5.0-1.4,37,Study 37,Session 37,NA,null,img/encoding_events/Event_19.jpg,null,NA,NA,NA,NA,NA
NA,NA,NA,NA,NA,html-keyboard-response,19,78061,0.0-5.0-2.4,37,Study 37,Session 37,NA,null,Please press the <strong><u>a</u></strong> key to continue,null,response,a,0,FALSE,NA
NA,NA,NA,NA,NA,html-keyboard-response,20,78573,0.0-5.0-0.5,37,Study 37,Session 37,NA,null,"<div style=""font-size:60px;"">+</div>",null,fixation,NA,NA,NA,NA
NA,NA,NA,NA,NA,image-keyboard-response,21,84580,0.0-5.0-1.5,37,Study 37,Session 37,NA,null,img/encoding_events/Event_3.jpg,null,NA,NA,NA,NA,NA
NA,NA,NA,NA,NA,html-keyboard-response,22,84585,0.0-5.0-2.5,37,Study 37,Session 37,NA,null,Please press the <strong><u>a</u></strong> key to continue,null,response,a,0,FALSE,NA
NA,NA,NA,NA,NA,html-keyboard-response,23,85091,0.0-5.0-0.6,37,Study 37,Session 37,NA,null,"<div style=""font-size:60px;"">+</div>",null,fixation,NA,NA,NA,NA
NA,NA,NA,NA,NA,image-keyboard-response,24,91097,0.0-5.0-1.6,37,Study 37,Session 37,NA,null,img/encoding_events/Event_21.jpg,null,NA,NA,NA,NA,NA
NA,NA,NA,NA,NA,html-keyboard-response,25,91102,0.0-5.0-2.6,37,Study 37,Session 37,NA,null,Please press the <strong><u>a</u></strong> key to continue,null,response,a,0,FALSE,NA
NA,NA,NA,NA,NA,html-keyboard-response,26,91610,0.0-5.0-0.7,37,Study 37,Session 37,NA,null,"<div style=""font-size:60px;"">+</div>",null,fixation,NA,NA,NA,NA
NA,NA,NA,NA,NA,image-keyboard-response,27,97624,0.0-5.0-1.7,37,Study 37,Session 37,NA,null,img/encoding_events/Event_20.jpg,null,NA,NA,NA,NA,NA
NA,NA,NA,NA,NA,html-keyboard-response,28,98846,0.0-5.0-2.7,37,Study 37,Session 37,NA,1223,Please press the <strong><u>j</u></strong> key to continue,j,response,j,6000,TRUE,NA
NA,NA,NA,NA,NA,html-keyboard-response,29,99353,0.0-5.0-0.8,37,Study 37,Session 37,NA,null,"<div style=""font-size:60px;"">+</div>",null,fixation,NA,NA,NA,NA
NA,NA,NA,NA,NA,image-keyboard-response,30,105359,0.0-5.0-1.8,37,Study 37,Session 37,NA,null,img/encoding_events/Event_10.jpg,null,NA,NA,NA,NA,NA
NA,NA,NA,NA,NA,html-keyboard-response,31,105359,0.0-5.0-2.8,37,Study 37,Session 37,NA,null,Please press the <strong><u>j</u></strong> key to continue,null,response,j,0,FALSE,NA
NA,NA,NA,NA,NA,html-keyboard-response,32,105871,0.0-5.0-0.9,37,Study 37,Session 37,NA,null,"<div style=""font-size:60px;"">+</div>",null,fixation,NA,NA,NA,NA
NA,NA,NA,NA,NA,image-keyboard-response,33,111884,0.0-5.0-1.9,37,Study 37,Session 37,NA,null,img/encoding_events/Event_23.jpg,null,NA,NA,NA,NA,NA
NA,NA,NA,NA,NA,html-keyboard-response,34,111889,0.0-5.0-2.9,37,Study 37,Session 37,NA,null,Please press the <strong><u>a</u></strong> key to continue,null,response,a,0,FALSE,NA
NA,NA,NA,NA,NA,html-keyboard-response,35,112396,0.0-5.0-0.10,37,Study 37,Session 37,NA,null,"<div style=""font-size:60px;"">+</div>",null,fixation,NA,NA,NA,NA
NA,NA,NA,NA,NA,image-keyboard-response,36,118408,0.0-5.0-1.10,37,Study 37,Session 37,NA,null,img/encoding_events/Event_5.jpg,null,NA,NA,NA,NA,NA
NA,NA,NA,NA,NA,html-keyboard-response,37,118413,0.0-5.0-2.10,37,Study 37,Session 37,NA,null,Please press the <strong><u>s</u></strong> key to continue,null,response,s,0,FALSE,NA
NA,NA,NA,NA,NA,html-keyboard-response,38,118920,0.0-5.0-0.11,37,Study 37,Session 37,NA,null,"<div style=""font-size:60px;"">+</div>",null,fixation,NA,NA,NA,NA
NA,NA,NA,NA,NA,image-keyboard-response,39,124927,0.0-5.0-1.11,37,Study 37,Session 37,NA,null,img/encoding_events/Event_12.jpg,null,NA,NA,NA,NA,NA
NA,NA,NA,NA,NA,html-keyboard-response,40,130018,0.0-5.0-2.11,37,Study 37,Session 37,NA,5091,Please press the <strong><u>f</u></strong> key to continue,f,response,f,6000,TRUE,NA
NA,NA,NA,NA,NA,html-keyboard-response,41,130531,0.0-5.0-0.12,37,Study 37,Session 37,NA,null,"<div style=""font-size:60px;"">+</div>",null,fixation,NA,NA,NA,NA
NA,NA,NA,NA,NA,image-keyboard-response,42,136536,0.0-5.0-1.12,37,Study 37,Session 37,NA,null,img/encoding_events/Event_14.jpg,null,NA,NA,NA,NA,NA
NA,NA,NA,NA,NA,html-keyboard-response,43,136536,0.0-5.0-2.12,37,Study 37,Session 37,NA,null,Please press the <strong><u>a</u></strong> key to continue,null,response,a,0,FALSE,NA
NA,NA,NA,NA,NA,html-keyboard-response,44,137049,0.0-5.0-0.13,37,Study 37,Session 37,NA,null,"<div style=""font-size:60px;"">+</div>",null,fixation,NA,NA,NA,NA
NA,NA,NA,NA,NA,image-keyboard-response,45,143055,0.0-5.0-1.13,37,Study 37,Session 37,NA,null,img/encoding_events/Event_13.jpg,null,NA,NA,NA,NA,NA
NA,NA,NA,NA,NA,html-keyboard-response,46,143059,0.0-5.0-2.13,37,Study 37,Session 37,NA,null,Please press the <strong><u>d</u></strong> key to continue,null,response,d,0,FALSE,NA
NA,NA,NA,NA,NA,html-keyboard-response,47,143568,0.0-5.0-0.14,37,Study 37,Session 37,NA,null,"<div style=""font-size:60px;"">+</div>",null,fixation,NA,NA,NA,NA
NA,NA,NA,NA,NA,image-keyboard-response,48,149582,0.0-5.0-1.14,37,Study 37,Session 37,NA,null,img/encoding_events/Event_6.jpg,null,NA,NA,NA,NA,NA
NA,NA,NA,NA,NA,html-keyboard-response,49,149586,0.0-5.0-2.14,37,Study 37,Session 37,NA,null,Please press the <strong><u>k</u></strong> key to continue,null,response,k,0,FALSE,NA
NA,NA,NA,NA,NA,html-keyboard-response,50,150094,0.0-5.0-0.15,37,Study 37,Session 37,NA,null,"<div style=""font-size:60px;"">+</div>",null,fixation,NA,NA,NA,NA
NA,NA,NA,NA,NA,image-keyboard-response,51,156106,0.0-5.0-1.15,37,Study 37,Session 37,NA,null,img/encoding_events/Event_22.jpg,null,NA,NA,NA,NA,NA
NA,NA,NA,NA,NA,html-keyboard-response,52,157958,0.0-5.0-2.15,37,Study 37,Session 37,NA,1852,Please press the <strong><u>d</u></strong> key to continue,d,response,d,6000,TRUE,NA
NA,NA,NA,NA,NA,html-keyboard-response,53,158471,0.0-5.0-0.16,37,Study 37,Session 37,NA,null,"<div style=""font-size:60px;"">+</div>",null,fixation,NA,NA,NA,NA
NA,NA,NA,NA,NA,image-keyboard-response,54,164484,0.0-5.0-1.16,37,Study 37,Session 37,NA,null,img/encoding_events/Event_4.jpg,null,NA,NA,NA,NA,NA
NA,NA,NA,NA,NA,html-keyboard-response,55,164484,0.0-5.0-2.16,37,Study 37,Session 37,NA,null,Please press the <strong><u>s</u></strong> key to continue,null,response,s,0,FALSE,NA
NA,NA,NA,NA,NA,html-keyboard-response,56,164990,0.0-5.0-0.17,37,Study 37,Session 37,NA,null,"<div style=""font-size:60px;"">+</div>",null,fixation,NA,NA,NA,NA
NA,NA,NA,NA,NA,image-keyboard-response,57,170994,0.0-5.0-1.17,37,Study 37,Session 37,NA,null,img/encoding_events/Event_9.jpg,null,NA,NA,NA,NA,NA
NA,NA,NA,NA,NA,html-keyboard-response,58,171000,0.0-5.0-2.17,37,Study 37,Session 37,NA,null,Please press the <strong><u>a</u></strong> key to continue,null,response,a,0,FALSE,NA
NA,NA,NA,NA,NA,html-keyboard-response,59,171507,0.0-5.0-0.18,37,Study 37,Session 37,NA,null,"<div style=""font-size:60px;"">+</div>",null,fixation,NA,NA,NA,NA
NA,NA,NA,NA,NA,image-keyboard-response,60,177509,0.0-5.0-1.18,37,Study 37,Session 37,NA,null,img/encoding_events/Event_11.jpg,null,NA,NA,NA,NA,NA
NA,NA,NA,NA,NA,html-keyboard-response,61,177514,0.0-5.0-2.18,37,Study 37,Session 37,NA,null,Please press the <strong><u>s</u></strong> key to continue,null,response,s,0,FALSE,NA
NA,NA,NA,NA,NA,html-keyboard-response,62,178015,0.0-5.0-0.19,37,Study 37,Session 37,NA,null,"<div style=""font-size:60px;"">+</div>",null,fixation,NA,NA,NA,NA
NA,NA,NA,NA,NA,image-keyboard-response,63,184029,0.0-5.0-1.19,37,Study 37,Session 37,NA,null,img/encoding_events/Event_8.jpg,null,NA,NA,NA,NA,NA
NA,NA,NA,NA,NA,html-keyboard-response,64,185754,0.0-5.0-2.19,37,Study 37,Session 37,NA,1727,Please press the <strong><u>d</u></strong> key to continue,d,response,d,6000,TRUE,NA
NA,NA,NA,NA,NA,html-keyboard-response,65,186267,0.0-5.0-0.20,37,Study 37,Session 37,NA,null,"<div style=""font-size:60px;"">+</div>",null,fixation,NA,NA,NA,NA
NA,NA,NA,NA,NA,image-keyboard-response,66,192270,0.0-5.0-1.20,37,Study 37,Session 37,NA,null,img/encoding_events/Event_17.jpg,null,NA,NA,NA,NA,NA
NA,NA,NA,NA,NA,html-keyboard-response,67,192270,0.0-5.0-2.20,37,Study 37,Session 37,NA,null,Please press the <strong><u>a</u></strong> key to continue,null,response,a,0,FALSE,NA
NA,NA,NA,NA,NA,html-keyboard-response,68,192776,0.0-5.0-0.21,37,Study 37,Session 37,NA,null,"<div style=""font-size:60px;"">+</div>",null,fixation,NA,NA,NA,NA
NA,NA,NA,NA,NA,image-keyboard-response,69,198789,0.0-5.0-1.21,37,Study 37,Session 37,NA,null,img/encoding_events/Event_7.jpg,null,NA,NA,NA,NA,NA
NA,NA,NA,NA,NA,html-keyboard-response,70,198795,0.0-5.0-2.21,37,Study 37,Session 37,NA,null,Please press the <strong><u>d</u></strong> key to continue,null,response,d,0,FALSE,NA
NA,NA,NA,NA,NA,html-keyboard-response,71,199301,0.0-5.0-0.22,37,Study 37,Session 37,NA,null,"<div style=""font-size:60px;"">+</div>",null,fixation,NA,NA,NA,NA
NA,NA,NA,NA,NA,image-keyboard-response,72,205315,0.0-5.0-1.22,37,Study 37,Session 37,NA,null,img/encoding_events/Event_18.jpg,null,NA,NA,NA,NA,NA
NA,NA,NA,NA,NA,html-keyboard-response,73,205320,0.0-5.0-2.22,37,Study 37,Session 37,NA,null,Please press the <strong><u>a</u></strong> key to continue,null,response,a,0,FALSE,NA
NA,NA,NA,NA,NA,html-keyboard-response,74,205827,0.0-5.0-0.23,37,Study 37,Session 37,NA,null,"<div style=""font-size:60px;"">+</div>",null,fixation,NA,NA,NA,NA
NA,NA,NA,NA,NA,image-keyboard-response,75,211841,0.0-5.0-1.23,37,Study 37,Session 37,NA,null,img/encoding_events/Event_15.jpg,null,NA,NA,NA,NA,NA
NA,NA,NA,NA,NA,html-keyboard-response,76,213235,0.0-5.0-2.23,37,Study 37,Session 37,NA,1395,Please press the <strong><u>a</u></strong> key to continue,a,response,a,6000,TRUE,NA
NA,NA,NA,NA,NA,instructions,77,258747,0.0-6.0,37,Study 37,Session 37,"[{""page_index"":0,""viewing_time"":2552},{""page_index"":1,""viewing_time"":4996},{""page_index"":2,""viewing_time"":4847},{""page_index"":3,""viewing_time"":10076},{""page_index"":4,""viewing_time"":8280},{""page_index"":5,""viewing_time"":13519},{""page_index"":6,""viewing_time"":1238}]",45508,NA,NA,NA,NA,NA,NA,NA
NA,NA,NA,NA,NA,image-keyboard-response,78,264497,0.0-7.0-0.0-0.0,37,Study 37,Session 37,NA,3234,img/testing_events/Ab/Test_Ab_Event_7.jpg,c,response,c,NA,TRUE,Ab
NA,NA,NA,NA,NA,image-keyboard-response,79,268592,0.0-7.0-0.0-0.1,37,Study 37,Session 37,NA,4095,img/testing_events/Ab/Test_Ab_Event_24.jpg,n,response,n,NA,TRUE,Ab
NA,NA,NA,NA,NA,image-keyboard-response,80,271388,0.0-7.0-0.0-0.2,37,Study 37,Session 37,NA,2796,img/testing_events/Ab/Test_Ab_Event_6.jpg,n,response,u,NA,FALSE,Ab
NA,NA,NA,NA,NA,image-keyboard-response,81,275675,0.0-7.0-0.0-0.3,37,Study 37,Session 37,NA,4286,img/testing_events/Ab/Test_Ab_Event_4.jpg,c,response,n,NA,FALSE,Ab
NA,NA,NA,NA,NA,image-keyboard-response,82,278964,0.0-7.0-0.0-0.4,37,Study 37,Session 37,NA,3289,img/testing_events/Ab/Test_Ab_Event_19.jpg,c,response,c,NA,TRUE,Ab
NA,NA,NA,NA,NA,image-keyboard-response,83,281999,0.0-7.0-0.0-0.5,37,Study 37,Session 37,NA,3035,img/testing_events/Ab/Test_Ab_Event_12.jpg,u,response,n,NA,FALSE,Ab
NA,NA,NA,NA,NA,image-keyboard-response,84,284163,0.0-7.0-0.0-0.6,37,Study 37,Session 37,NA,2163,img/testing_events/Ab/Test_Ab_Event_16.jpg,n,response,n,NA,TRUE,Ab
NA,NA,NA,NA,NA,image-keyboard-response,85,285672,0.0-7.0-0.0-0.7,37,Study 37,Session 37,NA,1509,img/testing_events/Ab/Test_Ab_Event_1.jpg,e,response,e,NA,TRUE,Ab
NA,NA,NA,NA,NA,image-keyboard-response,86,287537,0.0-7.0-0.0-0.8,37,Study 37,Session 37,NA,1865,img/testing_events/Ab/Test_Ab_Event_8.jpg,u,response,n,NA,FALSE,Ab
NA,NA,NA,NA,NA,image-keyboard-response,87,290912,0.0-7.0-0.0-0.9,37,Study 37,Session 37,NA,3375,img/testing_events/Ab/Test_Ab_Event_14.jpg,u,response,u,NA,TRUE,Ab
NA,NA,NA,NA,NA,image-keyboard-response,88,294420,0.0-7.0-0.0-0.10,37,Study 37,Session 37,NA,3507,img/testing_events/Ab/Test_Ab_Event_21.jpg,c,response,e,NA,FALSE,Ab
NA,NA,NA,NA,NA,image-keyboard-response,89,298312,0.0-7.0-0.0-0.11,37,Study 37,Session 37,NA,3892,img/testing_events/Ab/Test_Ab_Event_2.jpg,u,response,u,NA,TRUE,Ab
NA,NA,NA,NA,NA,image-keyboard-response,90,302876,0.0-7.0-0.0-0.12,37,Study 37,Session 37,NA,4563,img/testing_events/Ab/Test_Ab_Event_20.jpg,n,response,n,NA,TRUE,Ab
NA,NA,NA,NA,NA,image-keyboard-response,91,310072,0.0-7.0-0.0-0.13,37,Study 37,Session 37,NA,7196,img/testing_events/Ab/Test_Ab_Event_17.jpg,u,response,e,NA,FALSE,Ab
NA,NA,NA,NA,NA,image-keyboard-response,92,319391,0.0-7.0-0.0-0.14,37,Study 37,Session 37,NA,9327,img/testing_events/Ab/Test_Ab_Event_3.jpg,c,response,c,NA,TRUE,Ab
NA,NA,NA,NA,NA,image-keyboard-response,93,323827,0.0-7.0-0.0-0.15,37,Study 37,Session 37,NA,4435,img/testing_events/Ab/Test_Ab_Event_11.jpg,c,response,c,NA,TRUE,Ab
NA,NA,NA,NA,NA,image-keyboard-response,94,326672,0.0-7.0-0.0-0.16,37,Study 37,Session 37,NA,2844,img/testing_events/Ab/Test_Ab_Event_9.jpg,n,response,e,NA,FALSE,Ab
NA,NA,NA,NA,NA,image-keyboard-response,95,330059,0.0-7.0-0.0-0.17,37,Study 37,Session 37,NA,3387,img/testing_events/Ab/Test_Ab_Event_22.jpg,u,response,u,NA,TRUE,Ab
NA,NA,NA,NA,NA,image-keyboard-response,96,334137,0.0-7.0-0.0-0.18,37,Study 37,Session 37,NA,4078,img/testing_events/Ab/Test_Ab_Event_13.jpg,u,response,e,NA,FALSE,Ab
NA,NA,NA,NA,NA,image-keyboard-response,97,337117,0.0-7.0-0.0-0.19,37,Study 37,Session 37,NA,2979,img/testing_events/Ab/Test_Ab_Event_18.jpg,e,response,u,NA,FALSE,Ab
NA,NA,NA,NA,NA,image-keyboard-response,98,340415,0.0-7.0-0.0-0.20,37,Study 37,Session 37,NA,3298,img/testing_events/Ab/Test_Ab_Event_15.jpg,u,response,c,NA,FALSE,Ab
NA,NA,NA,NA,NA,image-keyboard-response,99,353224,0.0-7.0-0.0-0.21,37,Study 37,Session 37,NA,12809,img/testing_events/Ab/Test_Ab_Event_10.jpg,u,response,u,NA,TRUE,Ab
NA,NA,NA,NA,NA,image-keyboard-response,100,355344,0.0-7.0-0.0-0.22,37,Study 37,Session 37,NA,2119,img/testing_events/Ab/Test_Ab_Event_5.jpg,n,response,e,NA,FALSE,Ab
NA,NA,NA,NA,NA,image-keyboard-response,101,360202,0.0-7.0-0.0-0.23,37,Study 37,Session 37,NA,4858,img/testing_events/Ab/Test_Ab_Event_23.jpg,c,response,c,NA,TRUE,Ab
NA,NA,NA,NA,NA,image-keyboard-response,102,364412,0.0-7.0-1.0-0.0,37,Study 37,Session 37,NA,4209,img/testing_events/Bc/Test_Bc_Event_15.jpg,u,response,u,NA,TRUE,Bc
NA,NA,NA,NA,NA,image-keyboard-response,103,366812,0.0-7.0-1.0-0.1,37,Study 37,Session 37,NA,2400,img/testing_events/Bc/Test_Bc_Event_3.jpg,u,response,u,NA,TRUE,Bc
NA,NA,NA,NA,NA,image-keyboard-response,104,369704,0.0-7.0-1.0-0.2,37,Study 37,Session 37,NA,2891,img/testing_events/Bc/Test_Bc_Event_7.jpg,u,response,u,NA,TRUE,Bc
NA,NA,NA,NA,NA,image-keyboard-response,105,373415,0.0-7.0-1.0-0.3,37,Study 37,Session 37,NA,3711,img/testing_events/Bc/Test_Bc_Event_11.jpg,n,response,u,NA,FALSE,Bc
NA,NA,NA,NA,NA,image-keyboard-response,106,376203,0.0-7.0-1.0-0.4,37,Study 37,Session 37,NA,2787,img/testing_events/Bc/Test_Bc_Event_5.jpg,n,response,n,NA,TRUE,Bc
NA,NA,NA,NA,NA,image-keyboard-response,107,380788,0.0-7.0-1.0-0.5,37,Study 37,Session 37,NA,4586,img/testing_events/Bc/Test_Bc_Event_14.jpg,n,response,e,NA,FALSE,Bc
NA,NA,NA,NA,NA,image-keyboard-response,108,386606,0.0-7.0-1.0-0.6,37,Study 37,Session 37,NA,5817,img/testing_events/Bc/Test_Bc_Event_23.jpg,e,response,u,NA,FALSE,Bc
NA,NA,NA,NA,NA,image-keyboard-response,109,388620,0.0-7.0-1.0-0.7,37,Study 37,Session 37,NA,2014,img/testing_events/Bc/Test_Bc_Event_18.jpg,n,response,e,NA,FALSE,Bc
NA,NA,NA,NA,NA,image-keyboard-response,110,391786,0.0-7.0-1.0-0.8,37,Study 37,Session 37,NA,3165,img/testing_events/Bc/Test_Bc_Event_13.jpg,n,response,n,NA,TRUE,Bc
NA,NA,NA,NA,NA,image-keyboard-response,111,397470,0.0-7.0-1.0-0.9,37,Study 37,Session 37,NA,5684,img/testing_events/Bc/Test_Bc_Event_1.jpg,c,response,n,NA,FALSE,Bc
NA,NA,NA,NA,NA,image-keyboard-response,112,399050,0.0-7.0-1.0-0.10,37,Study 37,Session 37,NA,1580,img/testing_events/Bc/Test_Bc_Event_19.jpg,e,response,u,NA,FALSE,Bc
NA,NA,NA,NA,NA,image-keyboard-response,113,404256,0.0-7.0-1.0-0.11,37,Study 37,Session 37,NA,5205,img/testing_events/Bc/Test_Bc_Event_12.jpg,e,response,c,NA,FALSE,Bc
NA,NA,NA,NA,NA,image-keyboard-response,114,405768,0.0-7.0-1.0-0.12,37,Study 37,Session 37,NA,1512,img/testing_events/Bc/Test_Bc_Event_24.jpg,e,response,c,NA,FALSE,Bc
NA,NA,NA,NA,NA,image-keyboard-response,115,407519,0.0-7.0-1.0-0.13,37,Study 37,Session 37,NA,1750,img/testing_events/Bc/Test_Bc_Event_6.jpg,u,response,e,NA,FALSE,Bc
NA,NA,NA,NA,NA,image-keyboard-response,116,409152,0.0-7.0-1.0-0.14,37,Study 37,Session 37,NA,1631,img/testing_events/Bc/Test_Bc_Event_21.jpg,c,response,n,NA,FALSE,Bc
NA,NA,NA,NA,NA,image-keyboard-response,117,410958,0.0-7.0-1.0-0.15,37,Study 37,Session 37,NA,1805,img/testing_events/Bc/Test_Bc_Event_4.jpg,u,response,c,NA,FALSE,Bc
NA,NA,NA,NA,NA,image-keyboard-response,118,412465,0.0-7.0-1.0-0.16,37,Study 37,Session 37,NA,1507,img/testing_events/Bc/Test_Bc_Event_2.jpg,n,response,e,NA,FALSE,Bc
NA,NA,NA,NA,NA,image-keyboard-response,119,414401,0.0-7.0-1.0-0.17,37,Study 37,Session 37,NA,1935,img/testing_events/Bc/Test_Bc_Event_20.jpg,n,response,c,NA,FALSE,Bc
NA,NA,NA,NA,NA,image-keyboard-response,120,416172,0.0-7.0-1.0-0.18,37,Study 37,Session 37,NA,1770,img/testing_events/Bc/Test_Bc_Event_17.jpg,u,response,n,NA,FALSE,Bc
NA,NA,NA,NA,NA,image-keyboard-response,121,421919,0.0-7.0-1.0-0.19,37,Study 37,Session 37,NA,5747,img/testing_events/Bc/Test_Bc_Event_22.jpg,e,response,e,NA,TRUE,Bc
NA,NA,NA,NA,NA,image-keyboard-response,122,423246,0.0-7.0-1.0-0.20,37,Study 37,Session 37,NA,1327,img/testing_events/Bc/Test_Bc_Event_8.jpg,u,response,c,NA,FALSE,Bc
NA,NA,NA,NA,NA,image-keyboard-response,123,424507,0.0-7.0-1.0-0.21,37,Study 37,Session 37,NA,1260,img/testing_events/Bc/Test_Bc_Event_16.jpg,c,response,c,NA,TRUE,Bc
NA,NA,NA,NA,NA,image-keyboard-response,124,428885,0.0-7.0-1.0-0.22,37,Study 37,Session 37,NA,4377,img/testing_events/Bc/Test_Bc_Event_9.jpg,n,response,n,NA,TRUE,Bc
NA,NA,NA,NA,NA,image-keyboard-response,125,429993,0.0-7.0-1.0-0.23,37,Study 37,Session 37,NA,1108,img/testing_events/Bc/Test_Bc_Event_10.jpg,n,response,e,NA,FALSE,Bc
NA,NA,NA,NA,NA,image-keyboard-response,126,434553,0.0-7.0-2.0-0.0,37,Study 37,Session 37,NA,4559,img/testing_events/Ba/Test_Ba_Event_2.jpg,u,response,n,NA,FALSE,Ba
NA,NA,NA,NA,NA,image-keyboard-response,127,441145,0.0-7.0-2.0-0.1,37,Study 37,Session 37,NA,6585,img/testing_events/Ba/Test_Ba_Event_9.jpg,c,response,c,NA,TRUE,Ba
NA,NA,NA,NA,NA,image-keyboard-response,128,442539,0.0-7.0-2.0-0.2,37,Study 37,Session 37,NA,1393,img/testing_events/Ba/Test_Ba_Event_20.jpg,u,response,u,NA,TRUE,Ba
NA,NA,NA,NA,NA,image-keyboard-response,129,444296,0.0-7.0-2.0-0.3,37,Study 37,Session 37,NA,1756,img/testing_events/Ba/Test_Ba_Event_6.jpg,c,response,n,NA,FALSE,Ba
NA,NA,NA,NA,NA,image-keyboard-response,130,446078,0.0-7.0-2.0-0.4,37,Study 37,Session 37,NA,1782,img/testing_events/Ba/Test_Ba_Event_3.jpg,e,response,e,NA,TRUE,Ba
NA,NA,NA,NA,NA,image-keyboard-response,131,448260,0.0-7.0-2.0-0.5,37,Study 37,Session 37,NA,2181,img/testing_events/Ba/Test_Ba_Event_7.jpg,e,response,e,NA,TRUE,Ba
NA,NA,NA,NA,NA,image-keyboard-response,132,450784,0.0-7.0-2.0-0.6,37,Study 37,Session 37,NA,2524,img/testing_events/Ba/Test_Ba_Event_5.jpg,c,response,c,NA,TRUE,Ba
NA,NA,NA,NA,NA,image-keyboard-response,133,453793,0.0-7.0-2.0-0.7,37,Study 37,Session 37,NA,3008,img/testing_events/Ba/Test_Ba_Event_18.jpg,n,response,n,NA,TRUE,Ba
NA,NA,NA,NA,NA,image-keyboard-response,134,457317,0.0-7.0-2.0-0.8,37,Study 37,Session 37,NA,3523,img/testing_events/Ba/Test_Ba_Event_19.jpg,c,response,e,NA,FALSE,Ba
NA,NA,NA,NA,NA,image-keyboard-response,135,460424,0.0-7.0-2.0-0.9,37,Study 37,Session 37,NA,3107,img/testing_events/Ba/Test_Ba_Event_11.jpg,n,response,e,NA,FALSE,Ba
NA,NA,NA,NA,NA,image-keyboard-response,136,463640,0.0-7.0-2.0-0.10,37,Study 37,Session 37,NA,3215,img/testing_events/Ba/Test_Ba_Event_14.jpg,n,response,n,NA,TRUE,Ba
NA,NA,NA,NA,NA,image-keyboard-response,137,465946,0.0-7.0-2.0-0.11,37,Study 37,Session 37,NA,2306,img/testing_events/Ba/Test_Ba_Event_4.jpg,u,response,u,NA,TRUE,Ba
NA,NA,NA,NA,NA,image-keyboard-response,138,472597,0.0-7.0-2.0-0.12,37,Study 37,Session 37,NA,6651,img/testing_events/Ba/Test_Ba_Event_17.jpg,c,response,c,NA,TRUE,Ba
NA,NA,NA,NA,NA,image-keyboard-response,139,474195,0.0-7.0-2.0-0.13,37,Study 37,Session 37,NA,1597,img/testing_events/Ba/Test_Ba_Event_1.jpg,c,response,c,NA,TRUE,Ba
NA,NA,NA,NA,NA,image-keyboard-response,140,486835,0.0-7.0-2.0-0.14,37,Study 37,Session 37,NA,12639,img/testing_events/Ba/Test_Ba_Event_24.jpg,u,response,u,NA,TRUE,Ba
NA,NA,NA,NA,NA,image-keyboard-response,141,488612,0.0-7.0-2.0-0.15,37,Study 37,Session 37,NA,1777,img/testing_events/Ba/Test_Ba_Event_13.jpg,c,response,c,NA,TRUE,Ba
NA,NA,NA,NA,NA,image-keyboard-response,142,490042,0.0-7.0-2.0-0.16,37,Study 37,Session 37,NA,1429,img/testing_events/Ba/Test_Ba_Event_16.jpg,u,response,u,NA,TRUE,Ba
NA,NA,NA,NA,NA,image-keyboard-response,143,492146,0.0-7.0-2.0-0.17,37,Study 37,Session 37,NA,2103,img/testing_events/Ba/Test_Ba_Event_10.jpg,u,response,n,NA,FALSE,Ba
NA,NA,NA,NA,NA,image-keyboard-response,144,494247,0.0-7.0-2.0-0.18,37,Study 37,Session 37,NA,2101,img/testing_events/Ba/Test_Ba_Event_8.jpg,c,response,u,NA,FALSE,Ba
NA,NA,NA,NA,NA,image-keyboard-response,145,496862,0.0-7.0-2.0-0.19,37,Study 37,Session 37,NA,2614,img/testing_events/Ba/Test_Ba_Event_21.jpg,c,response,c,NA,TRUE,Ba
NA,NA,NA,NA,NA,image-keyboard-response,146,499162,0.0-7.0-2.0-0.20,37,Study 37,Session 37,NA,2299,img/testing_events/Ba/Test_Ba_Event_23.jpg,u,response,e,NA,FALSE,Ba
NA,NA,NA,NA,NA,image-keyboard-response,147,501358,0.0-7.0-2.0-0.21,37,Study 37,Session 37,NA,2193,img/testing_events/Ba/Test_Ba_Event_22.jpg,n,response,n,NA,TRUE,Ba
NA,NA,NA,NA,NA,image-keyboard-response,148,509138,0.0-7.0-2.0-0.22,37,Study 37,Session 37,NA,7779,img/testing_events/Ba/Test_Ba_Event_12.jpg,c,response,u,NA,FALSE,Ba
NA,NA,NA,NA,NA,image-keyboard-response,149,514615,0.0-7.0-2.0-0.23,37,Study 37,Session 37,NA,5477,img/testing_events/Ba/Test_Ba_Event_15.jpg,u,response,e,NA,FALSE,Ba
NA,NA,NA,NA,NA,image-keyboard-response,150,517574,0.0-7.0-3.0-0.0,37,Study 37,Session 37,NA,2958,img/testing_events/Ca/Test_Ca_Event_5.jpg,n,response,e,NA,FALSE,Ca
NA,NA,NA,NA,NA,image-keyboard-response,151,519365,0.0-7.0-3.0-0.1,37,Study 37,Session 37,NA,1790,img/testing_events/Ca/Test_Ca_Event_2.jpg,u,response,u,NA,TRUE,Ca
NA,NA,NA,NA,NA,image-keyboard-response,152,521257,0.0-7.0-3.0-0.2,37,Study 37,Session 37,NA,1892,img/testing_events/Ca/Test_Ca_Event_11.jpg,c,response,c,NA,TRUE,Ca
NA,NA,NA,NA,NA,image-keyboard-response,153,523504,0.0-7.0-3.0-0.3,37,Study 37,Session 37,NA,2247,img/testing_events/Ca/Test_Ca_Event_20.jpg,c,response,n,NA,FALSE,Ca
NA,NA,NA,NA,NA,image-keyboard-response,154,526645,0.0-7.0-3.0-0.4,37,Study 37,Session 37,NA,3140,img/testing_events/Ca/Test_Ca_Event_19.jpg,u,response,c,NA,FALSE,Ca
NA,NA,NA,NA,NA,image-keyboard-response,155,528777,0.0-7.0-3.0-0.5,37,Study 37,Session 37,NA,2132,img/testing_events/Ca/Test_Ca_Event_10.jpg,u,response,u,NA,TRUE,Ca
NA,NA,NA,NA,NA,image-keyboard-response,156,533622,0.0-7.0-3.0-0.6,37,Study 37,Session 37,NA,4844,img/testing_events/Ca/Test_Ca_Event_22.jpg,c,response,u,NA,FALSE,Ca
NA,NA,NA,NA,NA,image-keyboard-response,157,536063,0.0-7.0-3.0-0.7,37,Study 37,Session 37,NA,2441,img/testing_events/Ca/Test_Ca_Event_21.jpg,e,response,e,NA,TRUE,Ca
NA,NA,NA,NA,NA,image-keyboard-response,158,538632,0.0-7.0-3.0-0.8,37,Study 37,Session 37,NA,2568,img/testing_events/Ca/Test_Ca_Event_9.jpg,u,response,e,NA,FALSE,Ca
NA,NA,NA,NA,NA,image-keyboard-response,159,540222,0.0-7.0-3.0-0.9,37,Study 37,Session 37,NA,1590,img/testing_events/Ca/Test_Ca_Event_23.jpg,u,response,c,NA,FALSE,Ca
NA,NA,NA,NA,NA,image-keyboard-response,160,541783,0.0-7.0-3.0-0.10,37,Study 37,Session 37,NA,1561,img/testing_events/Ca/Test_Ca_Event_3.jpg,c,response,c,NA,TRUE,Ca
NA,NA,NA,NA,NA,image-keyboard-response,161,543283,0.0-7.0-3.0-0.11,37,Study 37,Session 37,NA,1498,img/testing_events/Ca/Test_Ca_Event_16.jpg,n,response,n,NA,TRUE,Ca
NA,NA,NA,NA,NA,image-keyboard-response,162,545118,0.0-7.0-3.0-0.12,37,Study 37,Session 37,NA,1835,img/testing_events/Ca/Test_Ca_Event_1.jpg,e,response,e,NA,TRUE,Ca
NA,NA,NA,NA,NA,image-keyboard-response,163,546475,0.0-7.0-3.0-0.13,37,Study 37,Session 37,NA,1356,img/testing_events/Ca/Test_Ca_Event_7.jpg,e,response,c,NA,FALSE,Ca
NA,NA,NA,NA,NA,image-keyboard-response,164,548697,0.0-7.0-3.0-0.14,37,Study 37,Session 37,NA,2222,img/testing_events/Ca/Test_Ca_Event_15.jpg,c,response,c,NA,TRUE,Ca
NA,NA,NA,NA,NA,image-keyboard-response,165,551273,0.0-7.0-3.0-0.15,37,Study 37,Session 37,NA,2576,img/testing_events/Ca/Test_Ca_Event_24.jpg,e,response,n,NA,FALSE,Ca
NA,NA,NA,NA,NA,image-keyboard-response,166,556380,0.0-7.0-3.0-0.16,37,Study 37,Session 37,NA,5106,img/testing_events/Ca/Test_Ca_Event_12.jpg,n,response,n,NA,TRUE,Ca
NA,NA,NA,NA,NA,image-keyboard-response,167,559050,0.0-7.0-3.0-0.17,37,Study 37,Session 37,NA,2669,img/testing_events/Ca/Test_Ca_Event_13.jpg,e,response,e,NA,TRUE,Ca
NA,NA,NA,NA,NA,image-keyboard-response,168,560569,0.0-7.0-3.0-0.18,37,Study 37,Session 37,NA,1519,img/testing_events/Ca/Test_Ca_Event_6.jpg,n,response,u,NA,FALSE,Ca
NA,NA,NA,NA,NA,image-keyboard-response,169,563818,0.0-7.0-3.0-0.19,37,Study 37,Session 37,NA,3255,img/testing_events/Ca/Test_Ca_Event_4.jpg,c,response,n,NA,FALSE,Ca
NA,NA,NA,NA,NA,image-keyboard-response,170,565745,0.0-7.0-3.0-0.20,37,Study 37,Session 37,NA,1927,img/testing_events/Ca/Test_Ca_Event_17.jpg,n,response,e,NA,FALSE,Ca
NA,NA,NA,NA,NA,image-keyboard-response,171,567194,0.0-7.0-3.0-0.21,37,Study 37,Session 37,NA,1449,img/testing_events/Ca/Test_Ca_Event_18.jpg,n,response,u,NA,FALSE,Ca
NA,NA,NA,NA,NA,image-keyboard-response,172,568625,0.0-7.0-3.0-0.22,37,Study 37,Session 37,NA,1430,img/testing_events/Ca/Test_Ca_Event_14.jpg,e,response,u,NA,FALSE,Ca
NA,NA,NA,NA,NA,image-keyboard-response,173,570201,0.0-7.0-3.0-0.23,37,Study 37,Session 37,NA,1575,img/testing_events/Ca/Test_Ca_Event_8.jpg,n,response,n,NA,TRUE,Ca
NA,NA,NA,NA,NA,image-keyboard-response,174,572906,0.0-7.0-4.0-0.0,37,Study 37,Session 37,NA,2705,img/testing_events/Cb/Test_Cb_Event_13.jpg,e,response,u,NA,FALSE,Cb
NA,NA,NA,NA,NA,image-keyboard-response,175,574265,0.0-7.0-4.0-0.1,37,Study 37,Session 37,NA,1358,img/testing_events/Cb/Test_Cb_Event_10.jpg,u,response,c,NA,FALSE,Cb
NA,NA,NA,NA,NA,image-keyboard-response,176,576273,0.0-7.0-4.0-0.2,37,Study 37,Session 37,NA,2008,img/testing_events/Cb/Test_Cb_Event_23.jpg,e,response,n,NA,FALSE,Cb
NA,NA,NA,NA,NA,image-keyboard-response,177,577398,0.0-7.0-4.0-0.3,37,Study 37,Session 37,NA,1125,img/testing_events/Cb/Test_Cb_Event_5.jpg,u,response,u,NA,TRUE,Cb
NA,NA,NA,NA,NA,image-keyboard-response,178,579478,0.0-7.0-4.0-0.4,37,Study 37,Session 37,NA,2079,img/testing_events/Cb/Test_Cb_Event_9.jpg,u,response,u,NA,TRUE,Cb
NA,NA,NA,NA,NA,image-keyboard-response,179,581134,0.0-7.0-4.0-0.5,37,Study 37,Session 37,NA,1656,img/testing_events/Cb/Test_Cb_Event_18.jpg,u,response,c,NA,FALSE,Cb
NA,NA,NA,NA,NA,image-keyboard-response,180,583442,0.0-7.0-4.0-0.6,37,Study 37,Session 37,NA,2308,img/testing_events/Cb/Test_Cb_Event_2.jpg,e,response,c,NA,FALSE,Cb
NA,NA,NA,NA,NA,image-keyboard-response,181,585870,0.0-7.0-4.0-0.7,37,Study 37,Session 37,NA,2427,img/testing_events/Cb/Test_Cb_Event_20.jpg,u,response,e,NA,FALSE,Cb
NA,NA,NA,NA,NA,image-keyboard-response,182,587895,0.0-7.0-4.0-0.8,37,Study 37,Session 37,NA,2024,img/testing_events/Cb/Test_Cb_Event_24.jpg,e,response,e,NA,TRUE,Cb
NA,NA,NA,NA,NA,image-keyboard-response,183,590202,0.0-7.0-4.0-0.9,37,Study 37,Session 37,NA,2307,img/testing_events/Cb/Test_Cb_Event_17.jpg,u,response,u,NA,TRUE,Cb
NA,NA,NA,NA,NA,image-keyboard-response,184,593089,0.0-7.0-4.0-0.10,37,Study 37,Session 37,NA,2886,img/testing_events/Cb/Test_Cb_Event_22.jpg,n,response,c,NA,FALSE,Cb
NA,NA,NA,NA,NA,image-keyboard-response,185,595714,0.0-7.0-4.0-0.11,37,Study 37,Session 37,NA,2625,img/testing_events/Cb/Test_Cb_Event_14.jpg,e,response,c,NA,FALSE,Cb
NA,NA,NA,NA,NA,image-keyboard-response,186,597411,0.0-7.0-4.0-0.12,37,Study 37,Session 37,NA,1697,img/testing_events/Cb/Test_Cb_Event_3.jpg,n,response,n,NA,TRUE,Cb
NA,NA,NA,NA,NA,image-keyboard-response,187,599090,0.0-7.0-4.0-0.13,37,Study 37,Session 37,NA,1678,img/testing_events/Cb/Test_Cb_Event_12.jpg,n,response,e,NA,FALSE,Cb
NA,NA,NA,NA,NA,image-keyboard-response,188,600279,0.0-7.0-4.0-0.14,37,Study 37,Session 37,NA,1189,img/testing_events/Cb/Test_Cb_Event_15.jpg,n,response,n,NA,TRUE,Cb
NA,NA,NA,NA,NA,image-keyboard-response,189,601451,0.0-7.0-4.0-0.15,37,Study 37,Session 37,NA,1171,img/testing_events/Cb/Test_Cb_Event_16.jpg,e,response,e,NA,TRUE,Cb
NA,NA,NA,NA,NA,image-keyboard-response,190,603506,0.0-7.0-4.0-0.16,37,Study 37,Session 37,NA,2055,img/testing_events/Cb/Test_Cb_Event_21.jpg,u,response,u,NA,TRUE,Cb
NA,NA,NA,NA,NA,image-keyboard-response,191,607227,0.0-7.0-4.0-0.17,37,Study 37,Session 37,NA,3721,img/testing_events/Cb/Test_Cb_Event_19.jpg,c,response,n,NA,FALSE,Cb
NA,NA,NA,NA,NA,image-keyboard-response,192,609917,0.0-7.0-4.0-0.18,37,Study 37,Session 37,NA,2690,img/testing_events/Cb/Test_Cb_Event_1.jpg,n,response,u,NA,FALSE,Cb
NA,NA,NA,NA,NA,image-keyboard-response,193,613252,0.0-7.0-4.0-0.19,37,Study 37,Session 37,NA,3335,img/testing_events/Cb/Test_Cb_Event_6.jpg,n,response,c,NA,FALSE,Cb
NA,NA,NA,NA,NA,image-keyboard-response,194,614445,0.0-7.0-4.0-0.20,37,Study 37,Session 37,NA,1192,img/testing_events/Cb/Test_Cb_Event_7.jpg,e,response,n,NA,FALSE,Cb
NA,NA,NA,NA,NA,image-keyboard-response,195,617975,0.0-7.0-4.0-0.21,37,Study 37,Session 37,NA,3529,img/testing_events/Cb/Test_Cb_Event_4.jpg,e,response,e,NA,TRUE,Cb
NA,NA,NA,NA,NA,image-keyboard-response,196,621602,0.0-7.0-4.0-0.22,37,Study 37,Session 37,NA,3627,img/testing_events/Cb/Test_Cb_Event_8.jpg,n,response,e,NA,FALSE,Cb
NA,NA,NA,NA,NA,image-keyboard-response,197,622868,0.0-7.0-4.0-0.23,37,Study 37,Session 37,NA,1265,img/testing_events/Cb/Test_Cb_Event_11.jpg,c,response,n,NA,FALSE,Cb
NA,NA,NA,NA,NA,image-keyboard-response,198,625883,0.0-7.0-5.0-0.0,37,Study 37,Session 37,NA,3014,img/testing_events/Ac/Test_Ac_Event_9.jpg,c,response,u,NA,FALSE,Ac
NA,NA,NA,NA,NA,image-keyboard-response,199,627116,0.0-7.0-5.0-0.1,37,Study 37,Session 37,NA,1233,img/testing_events/Ac/Test_Ac_Event_17.jpg,e,response,u,NA,FALSE,Ac
NA,NA,NA,NA,NA,image-keyboard-response,200,628767,0.0-7.0-5.0-0.2,37,Study 37,Session 37,NA,1650,img/testing_events/Ac/Test_Ac_Event_18.jpg,u,response,c,NA,FALSE,Ac
NA,NA,NA,NA,NA,image-keyboard-response,201,630744,0.0-7.0-5.0-0.3,37,Study 37,Session 37,NA,1977,img/testing_events/Ac/Test_Ac_Event_2.jpg,c,response,c,NA,TRUE,Ac
NA,NA,NA,NA,NA,image-keyboard-response,202,632128,0.0-7.0-5.0-0.4,37,Study 37,Session 37,NA,1383,img/testing_events/Ac/Test_Ac_Event_13.jpg,u,response,u,NA,TRUE,Ac
NA,NA,NA,NA,NA,image-keyboard-response,203,633364,0.0-7.0-5.0-0.5,37,Study 37,Session 37,NA,1235,img/testing_events/Ac/Test_Ac_Event_21.jpg,u,response,u,NA,TRUE,Ac
NA,NA,NA,NA,NA,image-keyboard-response,204,635568,0.0-7.0-5.0-0.6,37,Study 37,Session 37,NA,2204,img/testing_events/Ac/Test_Ac_Event_3.jpg,n,response,n,NA,TRUE,Ac
NA,NA,NA,NA,NA,image-keyboard-response,205,637514,0.0-7.0-5.0-0.7,37,Study 37,Session 37,NA,1945,img/testing_events/Ac/Test_Ac_Event_22.jpg,n,response,c,NA,FALSE,Ac
NA,NA,NA,NA,NA,image-keyboard-response,206,640199,0.0-7.0-5.0-0.8,37,Study 37,Session 37,NA,2684,img/testing_events/Ac/Test_Ac_Event_19.jpg,c,response,n,NA,FALSE,Ac
NA,NA,NA,NA,NA,image-keyboard-response,207,641742,0.0-7.0-5.0-0.9,37,Study 37,Session 37,NA,1542,img/testing_events/Ac/Test_Ac_Event_15.jpg,n,response,n,NA,TRUE,Ac
NA,NA,NA,NA,NA,image-keyboard-response,208,643180,0.0-7.0-5.0-0.10,37,Study 37,Session 37,NA,1437,img/testing_events/Ac/Test_Ac_Event_6.jpg,e,response,c,NA,FALSE,Ac
NA,NA,NA,NA,NA,image-keyboard-response,209,644455,0.0-7.0-5.0-0.11,37,Study 37,Session 37,NA,1275,img/testing_events/Ac/Test_Ac_Event_7.jpg,e,response,n,NA,FALSE,Ac
NA,NA,NA,NA,NA,image-keyboard-response,210,646378,0.0-7.0-5.0-0.12,37,Study 37,Session 37,NA,1922,img/testing_events/Ac/Test_Ac_Event_14.jpg,c,response,c,NA,TRUE,Ac
NA,NA,NA,NA,NA,image-keyboard-response,211,650745,0.0-7.0-5.0-0.13,37,Study 37,Session 37,NA,4367,img/testing_events/Ac/Test_Ac_Event_5.jpg,c,response,u,NA,FALSE,Ac
NA,NA,NA,NA,NA,image-keyboard-response,212,653554,0.0-7.0-5.0-0.14,37,Study 37,Session 37,NA,2807,img/testing_events/Ac/Test_Ac_Event_20.jpg,u,response,e,NA,FALSE,Ac
NA,NA,NA,NA,NA,image-keyboard-response,213,654935,0.0-7.0-5.0-0.15,37,Study 37,Session 37,NA,1381,img/testing_events/Ac/Test_Ac_Event_23.jpg,e,response,n,NA,FALSE,Ac
NA,NA,NA,NA,NA,image-keyboard-response,214,656010,0.0-7.0-5.0-0.16,37,Study 37,Session 37,NA,1074,img/testing_events/Ac/Test_Ac_Event_16.jpg,e,response,e,NA,TRUE,Ac
NA,NA,NA,NA,NA,image-keyboard-response,215,657766,0.0-7.0-5.0-0.17,37,Study 37,Session 37,NA,1755,img/testing_events/Ac/Test_Ac_Event_8.jpg,u,response,e,NA,FALSE,Ac
NA,NA,NA,NA,NA,image-keyboard-response,216,660360,0.0-7.0-5.0-0.18,37,Study 37,Session 37,NA,2594,img/testing_events/Ac/Test_Ac_Event_10.jpg,n,response,c,NA,FALSE,Ac
NA,NA,NA,NA,NA,image-keyboard-response,217,661898,0.0-7.0-5.0-0.19,37,Study 37,Session 37,NA,1537,img/testing_events/Ac/Test_Ac_Event_4.jpg,c,response,e,NA,FALSE,Ac
NA,NA,NA,NA,NA,image-keyboard-response,218,664320,0.0-7.0-5.0-0.20,37,Study 37,Session 37,NA,2422,img/testing_events/Ac/Test_Ac_Event_1.jpg,u,response,u,NA,TRUE,Ac
NA,NA,NA,NA,NA,image-keyboard-response,219,667419,0.0-7.0-5.0-0.21,37,Study 37,Session 37,NA,3098,img/testing_events/Ac/Test_Ac_Event_24.jpg,c,response,e,NA,FALSE,Ac
NA,NA,NA,NA,NA,image-keyboard-response,220,669025,0.0-7.0-5.0-0.22,37,Study 37,Session 37,NA,1606,img/testing_events/Ac/Test_Ac_Event_11.jpg,n,response,n,NA,TRUE,Ac
NA,NA,NA,NA,NA,image-keyboard-response,221,674214,0.0-7.0-5.0-0.23,37,Study 37,Session 37,NA,5189,img/testing_events/Ac/Test_Ac_Event_12.jpg,e,response,e,NA,TRUE,Ac
NA,NA,NA,NA,NA,survey-text,222,684540,0.0-8.0,37,Study 37,Session 37,NA,10318,NA,"{""Q0"":""no"",""Q1"":""no"",""Q2"":""no""}",NA,NA,NA,NA,NA
NA,NA,NA,NA,NA,survey-html-form,223,709186,0.0-9.0,37,Study 37,Session 37,NA,24639,NA,"{""Gender"":""Female"",""Age"":""22"",""ColorBlind"":""No"",""Education"":""Bachelors degree"",""Income"":""$0-$24,999"",""Race"":""White"",""Fluent"":""Yes"",""AgeEnglish"":""0"",""Country"":""United States""}",NA,NA,NA,NA,NA
TRUE,NA,NA,NA,NA,fullscreen,224,709187,0.0-10.0,37,Study 37,Session 37,NA,NA,NA,NA,NA,NA,NA,NA,NA
