success,timeout,failed_images,failed_audio,failed_video,trial_type,trial_index,time_elapsed,internal_node_id,subject_id,study_id,session_id,view_history,rt,stimulus,response,task,correct_response,attention_duration,correct,retrieval_group
TRUE,FALSE,[],[],[],preload,0,2689,0.0-0.0,44,Study 44,Session 44,NA,NA,NA,NA,NA,NA,NA,NA,NA
TRUE,NA,NA,NA,NA,fullscreen,1,7741,0.0-1.0,44,Study 44,Session 44,NA,NA,NA,NA,NA,NA,NA,NA,NA
NA,NA,NA,NA,NA,instructions,2,11392,0.0-2.0,44,Study 44,Session 44,"[{""page_index"":0,""viewing_time"":3649}]",3650,NA,NA,NA,NA,NA,NA,NA
NA,NA,NA,NA,NA,html-keyboard-response,3,19377,0.0-3.0,44,Study 44,Session 44,NA,7982,"Welcome to the experiment. <br /><br />This experiment will take about 20 minutes. Please complete all in one sitting. <br /><br />For this study, <strong>please use</strong> a laptop or desktop computer (not a mobile phone or tablet). Also, please use either <u>Chrome or Firefox</u>. <br /><br />Once you begin, <strong>DO NOT</strong> refresh the browser, as the experiment will reset and you will lose your progress. <br /><br />Press the <strong class=""upperline"">B</strong> key on your keyboard to begin.",b,NA,NA,NA,NA,NA
NA,NA,NA,NA,NA,instructions,4,35174,0.0-4.0,44,Study 44,Session 44,"[{""page_index"":0,""viewing_time"":4185},{""page_index"":1,""viewing_time"":8487},{""page_index"":2,""viewing_time"":2123}]",14795,NA,NA,NA,NA,NA,NA,NA
NA,NA,NA,NA,NA,html-keyboard-response,5,38177,0.0-5.0-0.0,44,Study 44,Session 44,NA,null,"<div style=""font-size:60px;"">+</div>",null,fixation,NA,NA,NA,NA
NA,NA,NA,NA,NA,image-keyboard-response,6,44183,0.0-5.0-1.0,44,Study 44,Session 44,NA,null,img/encoding_events/Event_8.jpg,null,NA,NA,NA,NA,NA
NA,NA,NA,NA,NA,html-keyboard-response,7,44187,0.0-5.0-2.0,44,Study 44,Session 44,NA,null,Please press the <strong><u>j</u></strong> key to continue,null,response,j,0,FALSE,NA
NA,NA,NA,NA,NA,html-keyboard-response,8,44689,0.0-5.0-0.1,44,Study 44,Session 44,NA,null,"<div style=""font-size:60px;"">+</div>",null,fixation,NA,NA,NA,NA
NA,NA,NA,NA,NA,image-keyboard-response,9,50692,0.0-5.0-1.1,44,Study 44,Session 44,NA,null,img/encoding_events/Event_1.jpg,null,NA,NA,NA,NA,NA
NA,NA,NA,NA,NA,html-keyboard-response,10,50697,0.0-5.0-2.1,44,Study 44,Session 44,NA,null,Please press the <strong><u>d</u></strong> key to continue,null,response,d,0,FALSE,NA
NA,NA,NA,NA,NA,html-keyboard-response,11,51199,0.0-5.0-0.2,44,Study 44,Session 44,NA,null,"<div style=""font-size:60px;"">+</div>",null,fixation,NA,NA,NA,NA
NA,NA,NA,NA,NA,image-keyboard-response,12,57201,0.0-5.0-1.2,44,Study 44,Session 44,NA,null,img/encoding_events/Event_2.jpg,null,NA,NA,NA,NA,NA
NA,NA,NA,NA,NA,html-keyboard-response,13,57207,0.0-5.0-2.2,44,Study 44,Session 44,NA,null,Please press the <strong><u>s</u></strong> key to continue,null,response,s,0,FALSE,NA
NA,NA,NA,NA,NA,html-keyboard-response,14,57708,0.0-5.0-0.3,44,Study 44,Session 44,NA,null,"<div style=""font-size:60px;"">+</div>",null,fixation,NA,NA,NA,NA
NA,NA,NA,NA,NA,image-keyboard-response,15,63710,0.0-5.0-1.3,44,Study 44,Session 44,NA,null,img/encoding_events/Event_15.jpg,null,NA,NA,NA,NA,NA
NA,NA,NA,NA,NA,html-keyboard-response,16,65205,0.0-5.0-2.3,44,Study 44,Session 44,NA,1494,Please press the <strong><u>a</u></strong> key to continue,a,response,a,6000,TRUE,NA
NA,NA,NA,NA,NA,html-keyboard-response,17,65707,0.0-5.0-0.4,44,Study 44,Session 44,NA,null,"<div style=""font-size:60px;"">+</div>",null,fixation,NA,NA,NA,NA
NA,NA,NA,NA,NA,image-keyboard-response,18,71709,0.0-5.0-1.4,44,Study 44,Session 44,NA,null,img/encoding_events/Event_6.jpg,null,NA,NA,NA,NA,NA
NA,NA,NA,NA,NA,html-keyboard-response,19,71730,0.0-5.0-2.4,44,Study 44,Session 44,NA,null,Please press the <strong><u>j</u></strong> key to continue,null,response,j,0,FALSE,NA
NA,NA,NA,NA,NA,html-keyboard-response,20,72231,0.0-5.0-0.5,44,Study 44,Session 44,NA,null,"<div style=""font-size:60px;"">+</div>",null,fixation,NA,NA,NA,NA
NA,NA,NA,NA,NA,image-keyboard-response,21,78233,0.0-5.0-1.5,44,Study 44,Session 44,NA,null,img/encoding_events/Event_9.jpg,null,NA,NA,NA,NA,NA
NA,NA,NA,NA,NA,html-keyboard-response,22,78239,0.0-5.0-2.5,44,Study 44,Session 44,NA,null,Please press the <strong><u>k</u></strong> key to continue,null,response,k,0,FALSE,NA
NA,NA,NA,NA,NA,html-keyboard-response,23,78741,0.0-5.0-0.6,44,Study 44,Session 44,NA,null,"<div style=""font-size:60px;"">+</div>",null,fixation,NA,NA,NA,NA
NA,NA,NA,NA,NA,image-keyboard-response,24,84742,0.0-5.0-1.6,44,Study 44,Session 44,NA,null,img/encoding_events/Event_23.jpg,null,NA,NA,NA,NA,NA
NA,NA,NA,NA,NA,html-keyboard-response,25,84748,0.0-5.0-2.6,44,Study 44,Session 44,NA,null,Please press the <strong><u>s</u></strong> key to continue,null,response,s,0,FALSE,NA
NA,NA,NA,NA,NA,html-keyboard-response,26,85250,0.0-5.0-0.7,44,Study 44,Session 44,NA,null,"<div style=""font-size:60px;"">+</div>",null,fixation,NA,NA,NA,NA
NA,NA,NA,NA,NA,image-keyboard-response,27,91252,0.0-5.0-1.7,44,Study 44,Session 44,NA,null,img/encoding_events/Event_3.jpg,null,NA,NA,NA,NA,NA
NA,NA,NA,NA,NA,html-keyboard-response,28,92528,0.0-5.0-2.7,44,Study 44,Session 44,NA,1275,Please press the <strong><u>a</u></strong> key to continue,a,response,a,6000,TRUE,NA
NA,NA,NA,NA,NA,html-keyboard-response,29,93030,0.0-5.0-0.8,44,Study 44,Session 44,NA,null,"<div style=""font-size:60px;"">+</div>",null,fixation,NA,NA,NA,NA
NA,NA,NA,NA,NA,image-keyboard-response,30,99032,0.0-5.0-1.8,44,Study 44,Session 44,NA,null,img/encoding_events/Event_21.jpg,null,NA,NA,NA,NA,NA
NA,NA,NA,NA,NA,html-keyboard-response,31,99035,0.0-5.0-2.8,44,Study 44,Session 44,NA,null,Please press the <strong><u>s</u></strong> key to continue,null,response,s,0,FALSE,NA
NA,NA,NA,NA,NA,html-keyboard-response,32,99537,0.0-5.0-0.9,44,Study 44,Session 44,NA,null,"<div style=""font-size:60px;"">+</div>",null,fixation,NA,NA,NA,NA
NA,NA,NA,NA,NA,image-keyboard-response,33,105539,0.0-5.0-1.9,44,Study 44,Session 44,NA,null,img/encoding_events/Event_13.jpg,null,NA,NA,NA,NA,NA
NA,NA,NA,NA,NA,html-keyboard-response,34,105545,0.0-5.0-2.9,44,Study 44,Session 44,NA,null,Please press the <strong><u>a</u></strong> key to continue,null,response,a,0,FALSE,NA
NA,NA,NA,NA,NA,html-keyboard-response,35,106047,0.0-5.0-0.10,44,Study 44,Session 44,NA,null,"<div style=""font-size:60px;"">+</div>",null,fixation,NA,NA,NA,NA
NA,NA,NA,NA,NA,image-keyboard-response,36,112049,0.0-5.0-1.10,44,Study 44,Session 44,NA,null,img/encoding_events/Event_17.jpg,null,NA,NA,NA,NA,NA
NA,NA,NA,NA,NA,html-keyboard-response,37,112054,0.0-5.0-2.10,44,Study 44,Session 44,NA,null,Please press the <strong><u>a</u></strong> key to continue,null,response,a,0,FALSE,NA
NA,NA,NA,NA,NA,html-keyboard-response,38,112556,0.0-5.0-0.11,44,Study 44,Session 44,NA,null,"<div style=""font-size:60px;"">+</div>",null,fixation,NA,NA,NA,NA
NA,NA,NA,NA,NA,image-keyboard-response,39,118558,0.0-5.0-1.11,44,Study 44,Session 44,NA,null,img/encoding_events/Event_12.jpg,null,NA,NA,NA,NA,NA
NA,NA,NA,NA,NA,html-keyboard-response,40,119881,0.0-5.0-2.11,44,Study 44,Session 44,NA,1322,Please press the <strong><u>k</u></strong> key to continue,k,response,k,6000,TRUE,NA
NA,NA,NA,NA,NA,html-keyboard-response,41,120383,0.0-5.0-0.12,44,Study 44,Session 44,NA,null,"<div style=""font-size:60px;"">+</div>",null,fixation,NA,NA,NA,NA
NA,NA,NA,NA,NA,image-keyboard-response,42,126385,0.0-5.0-1.12,44,Study 44,Session 44,NA,null,img/encoding_events/Event_22.jpg,null,NA,NA,NA,NA,NA
NA,NA,NA,NA,NA,html-keyboard-response,43,126388,0.0-5.0-2.12,44,Study 44,Session 44,NA,null,Please press the <strong><u>a</u></strong> key to continue,null,response,a,0,FALSE,NA
NA,NA,NA,NA,NA,html-keyboard-response,44,126890,0.0-5.0-0.13,44,Study 44,Session 44,NA,null,"<div style=""font-size:60px;"">+</div>",null,fixation,NA,NA,NA,NA
NA,NA,NA,NA,NA,image-keyboard-response,45,132892,0.0-5.0-1.13,44,Study 44,Session 44,NA,null,img/encoding_events/Event_24.jpg,null,NA,NA,NA,NA,NA
NA,NA,NA,NA,NA,html-keyboard-response,46,132897,0.0-5.0-2.13,44,Study 44,Session 44,NA,null,Please press the <strong><u>k</u></strong> key to continue,null,response,k,0,FALSE,NA
NA,NA,NA,NA,NA,html-keyboard-response,47,133399,0.0-5.0-0.14,44,Study 44,Session 44,NA,null,"<div style=""font-size:60px;"">+</div>",null,fixation,NA,NA,NA,NA
NA,NA,NA,NA,NA,image-keyboard-response,48,139401,0.0-5.0-1.14,44,Study 44,Session 44,NA,null,img/encoding_events/Event_4.jpg,null,NA,NA,NA,NA,NA
NA,NA,NA,NA,NA,html-keyboard-response,49,139407,0.0-5.0-2.14,44,Study 44,Session 44,NA,null,Please press the <strong><u>j</u></strong> key to continue,null,response,j,0,FALSE,NA
NA,NA,NA,NA,NA,html-keyboard-response,50,139908,0.0-5.0-0.15,44,Study 44,Session 44,NA,null,"<div style=""font-size:60px;"">+</div>",null,fixation,NA,NA,NA,NA
NA,NA,NA,NA,NA,image-keyboard-response,51,145910,0.0-5.0-1.15,44,Study 44,Session 44,NA,null,img/encoding_events/Event_10.jpg,null,NA,NA,NA,NA,NA
NA,NA,NA,NA,NA,html-keyboard-response,52,146821,0.0-5.0-2.15,44,Study 44,Session 44,NA,910,Please press the <strong><u>k</u></strong> key to continue,k,response,k,6000,TRUE,NA
NA,NA,NA,NA,NA,html-keyboard-response,53,147323,0.0-5.0-0.16,44,Study 44,Session 44,NA,null,"<div style=""font-size:60px;"">+</div>",null,fixation,NA,NA,NA,NA
NA,NA,NA,NA,NA,image-keyboard-response,54,153325,0.0-5.0-1.16,44,Study 44,Session 44,NA,null,img/encoding_events/Event_19.jpg,null,NA,NA,NA,NA,NA
NA,NA,NA,NA,NA,html-keyboard-response,55,153328,0.0-5.0-2.16,44,Study 44,Session 44,NA,null,Please press the <strong><u>j</u></strong> key to continue,null,response,j,0,FALSE,NA
NA,NA,NA,NA,NA,html-keyboard-response,56,153829,0.0-5.0-0.17,44,Study 44,Session 44,NA,null,"<div style=""font-size:60px;"">+</div>",null,fixation,NA,NA,NA,NA
NA,NA,NA,NA,NA,image-keyboard-response,57,159831,0.0-5.0-1.17,44,Study 44,Session 44,NA,null,img/encoding_events/Event_20.jpg,null,NA,NA,NA,NA,NA
NA,NA,NA,NA,NA,html-keyboard-response,58,159837,0.0-5.0-2.17,44,Study 44,Session 44,NA,null,Please press the <strong><u>a</u></strong> key to continue,null,response,a,0,FALSE,NA
NA,NA,NA,NA,NA,html-keyboard-response,59,160338,0.0-5.0-0.18,44,Study 44,Session 44,NA,null,"<div style=""font-size:60px;"">+</div>",null,fixation,NA,NA,NA,NA
NA,NA,NA,NA,NA,image-keyboard-response,60,166340,0.0-5.0-1.18,44,Study 44,Session 44,NA,null,img/encoding_events/Event_14.jpg,null,NA,NA,NA,NA,NA
NA,NA,NA,NA,NA,html-keyboard-response,61,166346,0.0-5.0-2.18,44,Study 44,Session 44,NA,null,Please press the <strong><u>k</u></strong> key to continue,null,response,k,0,FALSE,NA
NA,NA,NA,NA,NA,html-keyboard-response,62,166849,0.0-5.0-0.19,44,Study 44,Session 44,NA,null,"<div style=""font-size:60px;"">+</div>",null,fixation,NA,NA,NA,NA
NA,NA,NA,NA,NA,image-keyboard-response,63,172851,0.0-5.0-1.19,44,Study 44,Session 44,NA,null,img/encoding_events/Event_7.jpg,null,NA,NA,NA,NA,NA
NA,NA,NA,NA,NA,html-keyboard-response,64,174039,0.0-5.0-2.19,44,Study 44,Session 44,NA,1187,Please press the <strong><u>j</u></strong> key to continue,j,response,j,6000,TRUE,NA
NA,NA,NA,NA,NA,html-keyboard-response,65,174541,0.0-5.0-0.20,44,Study 44,Session 44,NA,null,"<div style=""font-size:60px;"">+</div>",null,fixation,NA,NA,NA,NA
NA,NA,NA,NA,NA,image-keyboard-response,66,180543,0.0-5.0-1.20,44,Study 44,Session 44,NA,null,img/encoding_events/Event_16.jpg,null,NA,NA,NA,NA,NA
NA,NA,NA,NA,NA,html-keyboard-response,67,180546,0.0-5.0-2.20,44,Study 44,Session 44,NA,null,Please press the <strong><u>f</u></strong> key to continue,null,response,f,0,FALSE,NA
NA,NA,NA,NA,NA,html-keyboard-response,68,181048,0.0-5.0-0.21,44,Study 44,Session 44,NA,null,"<div style=""font-size:60px;"">+</div>",null,fixation,NA,NA,NA,NA
NA,NA,NA,NA,NA,image-keyboard-response,69,187050,0.0-5.0-1.21,44,Study 44,Session 44,NA,null,img/encoding_events/Event_5.jpg,null,NA,NA,NA,NA,NA
NA,NA,NA,NA,NA,html-keyboard-response,70,187056,0.0-5.0-2.21,44,Study 44,Session 44,NA,null,Please press the <strong><u>s</u></strong> key to continue,null,response,s,0,FALSE,NA
NA,NA,NA,NA,NA,html-keyboard-response,71,187557,0.0-5.0-0.22,44,Study 44,Session 44,NA,null,"<div style=""font-size:60px;"">+</div>",null,fixation,NA,NA,NA,NA
NA,NA,NA,NA,NA,image-keyboard-response,72,193559,0.0-5.0-1.22,44,Study 44,Session 44,NA,null,img/encoding_events/Event_11.jpg,null,NA,NA,NA,NA,NA
NA,NA,NA,NA,NA,html-keyboard-response,73,193565,0.0-5.0-2.22,44,Study 44,Session 44,NA,null,Please press the <strong><u>d</u></strong> key to continue,null,response,d,0,FALSE,NA
NA,NA,NA,NA,NA,html-keyboard-response,74,194066,0.0-5.0-0.23,44,Study 44,Session 44,NA,null,"<div style=""font-size:60px;"">+</div>",null,fixation,NA,NA,NA,NA
NA,NA,NA,NA,NA,image-keyboard-response,75,200078,0.0-5.0-1.23,44,Study 44,Session 44,NA,null,img/encoding_events/Event_18.jpg,null,NA,NA,NA,NA,NA
NA,NA,NA,NA,NA,html-keyboard-response,76,201392,0.0-5.0-2.23,44,Study 44,Session 44,NA,1312,Please press the <strong><u>f</u></strong> key to continue,f,response,f,6000,TRUE,NA
NA,NA,NA,NA,NA,instructions,77,237490,0.0-6.0,44,Study 44,Session 44,"[{""page_index"":0,""viewing_time"":2192},{""page_index"":1,""viewing_time"":4026},{""page_index"":2,""viewing_time"":6041},{""page_index"":3,""viewing_time"":9542},{""page_index"":4,""viewing_time"":7692},{""page_index"":5,""viewing_time"":5455},{""page_index"":6,""viewing_time"":1148}]",36097,NA,NA,NA,NA,NA,NA,NA
NA,NA,NA,NA,NA,image-keyboard-response,78,246518,0.0-7.0-0.0-0.0,44,Study 44,Session 44,NA,6526,img/testing_events/Ac/Test_Ac_Event_1.jpg,u,response,u,NA,TRUE,Ac
NA,NA,NA,NA,NA,image-keyboard-response,79,249291,0.0-7.0-0.0-0.1,44,Study 44,Session 44,NA,2770,img/testing_events/Ac/Test_Ac_Event_19.jpg,n,response,n,NA,TRUE,Ac
NA,NA,NA,NA,NA,image-keyboard-response,80,255344,0.0-7.0-0.0-0.2,44,Study 44,Session 44,NA,6051,img/testing_events/Ac/Test_Ac_Event_20.jpg,e,response,e,NA,TRUE,Ac
NA,NA,NA,NA,NA,image-keyboard-response,81,259454,0.0-7.0-0.0-0.3,44,Study 44,Session 44,NA,4109,img/testing_events/Ac/Test_Ac_Event_2.jpg,c,response,c,NA,TRUE,Ac
NA,NA,NA,NA,NA,image-keyboard-response,82,263833,0.0-7.0-0.0-0.4,44,Study 44,Session 44,NA,4377,img/testing_events/Ac/Test_Ac_Event_22.jpg,u,response,c,NA,FALSE,Ac
NA,NA,NA,NA,NA,image-keyboard-response,83,266206,0.0-7.0-0.0-0.5,44,Study 44,Session 44,NA,2370,img/testing_events/Ac/Test_Ac_Event_3.jpg,n,response,n,NA,TRUE,Ac
NA,NA,NA,NA,NA,image-keyboard-response,84,271960,0.0-7.0-0.0-0.6,44,Study 44,Session 44,NA,5752,img/testing_events/Ac/Test_Ac_Event_17.jpg,u,response,u,NA,TRUE,Ac
NA,NA,NA,NA,NA,image-keyboard-response,85,276435,0.0-7.0-0.0-0.7,44,Study 44,Session 44,NA,4474,img/testing_events/Ac/Test_Ac_Event_14.jpg,c,response,c,NA,TRUE,Ac
NA,NA,NA,NA,NA,image-keyboard-response,86,284491,0.0-7.0-0.0-0.8,44,Study 44,Session 44,NA,8054,img/testing_events/Ac/Test_Ac_Event_16.jpg,u,response,e,NA,FALSE,Ac
NA,NA,NA,NA,NA,image-keyboard-response,87,287884,0.0-7.0-0.0-0.9,44,Study 44,Session 44,NA,3391,img/testing_events/Ac/Test_Ac_Event_7.jpg,n,response,n,NA,TRUE,Ac
NA,NA,NA,NA,NA,image-keyboard-response,88,293136,0.0-7.0-0.0-0.10,44,Study 44,Session 44,NA,5250,img/testing_events/Ac/Test_Ac_Event_11.jpg,c,response,n,NA,FALSE,Ac
NA,NA,NA,NA,NA,image-keyboard-response,89,299633,0.0-7.0-0.0-0.11,44,Study 44,Session 44,NA,6495,img/testing_events/Ac/Test_Ac_Event_5.jpg,u,response,u,NA,TRUE,Ac
NA,NA,NA,NA,NA,image-keyboard-response,90,305038,0.0-7.0-0.0-0.12,44,Study 44,Session 44,NA,5403,img/testing_events/Ac/Test_Ac_Event_23.jpg,n,response,n,NA,TRUE,Ac
NA,NA,NA,NA,NA,image-keyboard-response,91,311712,0.0-7.0-0.0-0.13,44,Study 44,Session 44,NA,6671,img/testing_events/Ac/Test_Ac_Event_18.jpg,u,response,c,NA,FALSE,Ac
NA,NA,NA,NA,NA,image-keyboard-response,92,314212,0.0-7.0-0.0-0.14,44,Study 44,Session 44,NA,2498,img/testing_events/Ac/Test_Ac_Event_15.jpg,n,response,n,NA,TRUE,Ac
NA,NA,NA,NA,NA,image-keyboard-response,93,319334,0.0-7.0-0.0-0.15,44,Study 44,Session 44,NA,5120,img/testing_events/Ac/Test_Ac_Event_21.jpg,n,response,u,NA,FALSE,Ac
NA,NA,NA,NA,NA,image-keyboard-response,94,325032,0.0-7.0-0.0-0.16,44,Study 44,Session 44,NA,5696,img/testing_events/Ac/Test_Ac_Event_24.jpg,u,response,e,NA,FALSE,Ac
NA,NA,NA,NA,NA,image-keyboard-response,95,332712,0.0-7.0-0.0-0.17,44,Study 44,Session 44,NA,7676,img/testing_events/Ac/Test_Ac_Event_6.jpg,n,response,c,NA,FALSE,Ac
NA,NA,NA,NA,NA,image-keyboard-response,96,335405,0.0-7.0-0.0-0.18,44,Study 44,Session 44,NA,2691,img/testing_events/Ac/Test_Ac_Event_10.jpg,c,response,c,NA,TRUE,Ac
NA,NA,NA,NA,NA,image-keyboard-response,97,340203,0.0-7.0-0.0-0.19,44,Study 44,Session 44,NA,4797,img/testing_events/Ac/Test_Ac_Event_12.jpg,e,response,e,NA,TRUE,Ac
NA,NA,NA,NA,NA,image-keyboard-response,98,346695,0.0-7.0-0.0-0.20,44,Study 44,Session 44,NA,6490,img/testing_events/Ac/Test_Ac_Event_9.jpg,u,response,u,NA,TRUE,Ac
NA,NA,NA,NA,NA,image-keyboard-response,99,355448,0.0-7.0-0.0-0.21,44,Study 44,Session 44,NA,8751,img/testing_events/Ac/Test_Ac_Event_8.jpg,e,response,e,NA,TRUE,Ac
NA,NA,NA,NA,NA,image-keyboard-response,100,359987,0.0-7.0-0.0-0.22,44,Study 44,Session 44,NA,4537,img/testing_events/Ac/Test_Ac_Event_13.jpg,n,response,u,NA,FALSE,Ac
NA,NA,NA,NA,NA,image-keyboard-response,101,363276,0.0-7.0-0.0-0.23,44,Study 44,Session 44,NA,3287,img/testing_events/Ac/Test_Ac_Event_4.jpg,u,response,e,NA,FALSE,Ac
NA,NA,NA,NA,NA,image-keyboard-response,102,366020,0.0-7.0-1.0-0.0,44,Study 44,Session 44,NA,2742,img/testing_events/Ba/Test_Ba_Event_15.jpg,e,response,e,NA,TRUE,Ba
NA,NA,NA,NA,NA,image-keyboard-response,103,375509,0.0-7.0-1.0-0.1,44,Study 44,Session 44,NA,9488,img/testing_events/Ba/Test_Ba_Event_1.jpg,c,response,c,NA,TRUE,Ba
NA,NA,NA,NA,NA,image-keyboard-response,104,376634,0.0-7.0-1.0-0.2,44,Study 44,Session 44,NA,1122,img/testing_events/Ba/Test_Ba_Event_19.jpg,e,response,e,NA,TRUE,Ba
NA,NA,NA,NA,NA,image-keyboard-response,105,384878,0.0-7.0-1.0-0.3,44,Study 44,Session 44,NA,8242,img/testing_events/Ba/Test_Ba_Event_7.jpg,n,response,e,NA,FALSE,Ba
NA,NA,NA,NA,NA,image-keyboard-response,106,392686,0.0-7.0-1.0-0.4,44,Study 44,Session 44,NA,7807,img/testing_events/Ba/Test_Ba_Event_21.jpg,n,response,c,NA,FALSE,Ba
NA,NA,NA,NA,NA,image-keyboard-response,107,395781,0.0-7.0-1.0-0.5,44,Study 44,Session 44,NA,3093,img/testing_events/Ba/Test_Ba_Event_5.jpg,c,response,c,NA,TRUE,Ba
NA,NA,NA,NA,NA,image-keyboard-response,108,400645,0.0-7.0-1.0-0.6,44,Study 44,Session 44,NA,4862,img/testing_events/Ba/Test_Ba_Event_18.jpg,e,response,n,NA,FALSE,Ba
NA,NA,NA,NA,NA,image-keyboard-response,109,404216,0.0-7.0-1.0-0.7,44,Study 44,Session 44,NA,3570,img/testing_events/Ba/Test_Ba_Event_16.jpg,u,response,u,NA,TRUE,Ba
NA,NA,NA,NA,NA,image-keyboard-response,110,405631,0.0-7.0-1.0-0.8,44,Study 44,Session 44,NA,1413,img/testing_events/Ba/Test_Ba_Event_2.jpg,n,response,n,NA,TRUE,Ba
NA,NA,NA,NA,NA,image-keyboard-response,111,409659,0.0-7.0-1.0-0.9,44,Study 44,Session 44,NA,4026,img/testing_events/Ba/Test_Ba_Event_4.jpg,e,response,u,NA,FALSE,Ba
NA,NA,NA,NA,NA,image-keyboard-response,112,416713,0.0-7.0-1.0-0.10,44,Study 44,Session 44,NA,7053,img/testing_events/Ba/Test_Ba_Event_24.jpg,u,response,u,NA,TRUE,Ba
NA,NA,NA,NA,NA,image-keyboard-response,113,420585,0.0-7.0-1.0-0.11,44,Study 44,Session 44,NA,3870,img/testing_events/Ba/Test_Ba_Event_11.jpg,e,response,e,NA,TRUE,Ba
NA,NA,NA,NA,NA,image-keyboard-response,114,424796,0.0-7.0-1.0-0.12,44,Study 44,Session 44,NA,4210,img/testing_events/Ba/Test_Ba_Event_10.jpg,n,response,n,NA,TRUE,Ba
NA,NA,NA,NA,NA,image-keyboard-response,115,429049,0.0-7.0-1.0-0.13,44,Study 44,Session 44,NA,4250,img/testing_events/Ba/Test_Ba_Event_6.jpg,n,response,n,NA,TRUE,Ba
NA,NA,NA,NA,NA,image-keyboard-response,116,430986,0.0-7.0-1.0-0.14,44,Study 44,Session 44,NA,1936,img/testing_events/Ba/Test_Ba_Event_12.jpg,u,response,u,NA,TRUE,Ba
NA,NA,NA,NA,NA,image-keyboard-response,117,434418,0.0-7.0-1.0-0.15,44,Study 44,Session 44,NA,3430,img/testing_events/Ba/Test_Ba_Event_14.jpg,n,response,n,NA,TRUE,Ba
NA,NA,NA,NA,NA,image-keyboard-response,118,436316,0.0-7.0-1.0-0.16,44,Study 44,Session 44,NA,1897,img/testing_events/Ba/Test_Ba_Event_17.jpg,e,response,c,NA,FALSE,Ba
NA,NA,NA,NA,NA,image-keyboard-response,119,437617,0.0-7.0-1.0-0.17,44,Study 44,Session 44,NA,1298,img/testing_events/Ba/Test_Ba_Event_3.jpg,e,response,e,NA,TRUE,Ba
NA,NA,NA,NA,NA,image-keyboard-response,120,441500,0.0-7.0-1.0-0.18,44,Study 44,Session 44,NA,3882,img/testing_events/Ba/Test_Ba_Event_8.jpg,u,response,u,NA,TRUE,Ba
NA,NA,NA,NA,NA,image-keyboard-response,121,445820,0.0-7.0-1.0-0.19,44,Study 44,Session 44,NA,4318,img/testing_events/Ba/Test_Ba_Event_20.jpg,u,response,u,NA,TRUE,Ba
NA,NA,NA,NA,NA,image-keyboard-response,122,447859,0.0-7.0-1.0-0.20,44,Study 44,Session 44,NA,2038,img/testing_events/Ba/Test_Ba_Event_23.jpg,e,response,e,NA,TRUE,Ba
NA,NA,NA,NA,NA,image-keyboard-response,123,451722,0.0-7.0-1.0-0.21,44,Study 44,Session 44,NA,3860,img/testing_events/Ba/Test_Ba_Event_13.jpg,c,response,c,NA,TRUE,Ba
NA,NA,NA,NA,NA,image-keyboard-response,124,455857,0.0-7.0-1.0-0.22,44,Study 44,Session 44,NA,4134,img/testing_events/Ba/Test_Ba_Event_22.jpg,n,response,n,NA,TRUE,Ba
NA,NA,NA,NA,NA,image-keyboard-response,125,459612,0.0-7.0-1.0-0.23,44,Study 44,Session 44,NA,3753,img/testing_events/Ba/Test_Ba_Event_9.jpg,e,response,c,NA,FALSE,Ba
NA,NA,NA,NA,NA,image-keyboard-response,126,465430,0.0-7.0-2.0-0.0,44,Study 44,Session 44,NA,5816,img/testing_events/Ca/Test_Ca_Event_5.jpg,u,response,e,NA,FALSE,Ca
NA,NA,NA,NA,NA,image-keyboard-response,127,468511,0.0-7.0-2.0-0.1,44,Study 44,Session 44,NA,3080,img/testing_events/Ca/Test_Ca_Event_11.jpg,c,response,c,NA,TRUE,Ca
NA,NA,NA,NA,NA,image-keyboard-response,128,471723,0.0-7.0-2.0-0.2,44,Study 44,Session 44,NA,3210,img/testing_events/Ca/Test_Ca_Event_18.jpg,u,response,u,NA,TRUE,Ca
NA,NA,NA,NA,NA,image-keyboard-response,129,475164,0.0-7.0-2.0-0.3,44,Study 44,Session 44,NA,3439,img/testing_events/Ca/Test_Ca_Event_6.jpg,n,response,u,NA,FALSE,Ca
NA,NA,NA,NA,NA,image-keyboard-response,130,479054,0.0-7.0-2.0-0.4,44,Study 44,Session 44,NA,3887,img/testing_events/Ca/Test_Ca_Event_23.jpg,c,response,c,NA,TRUE,Ca
NA,NA,NA,NA,NA,image-keyboard-response,131,484606,0.0-7.0-2.0-0.5,44,Study 44,Session 44,NA,5550,img/testing_events/Ca/Test_Ca_Event_24.jpg,u,response,n,NA,FALSE,Ca
NA,NA,NA,NA,NA,image-keyboard-response,132,494671,0.0-7.0-2.0-0.6,44,Study 44,Session 44,NA,10061,img/testing_events/Ca/Test_Ca_Event_1.jpg,e,response,e,NA,TRUE,Ca
NA,NA,NA,NA,NA,image-keyboard-response,133,499418,0.0-7.0-2.0-0.7,44,Study 44,Session 44,NA,4746,img/testing_events/Ca/Test_Ca_Event_13.jpg,e,response,e,NA,TRUE,Ca
NA,NA,NA,NA,NA,image-keyboard-response,134,501621,0.0-7.0-2.0-0.8,44,Study 44,Session 44,NA,2201,img/testing_events/Ca/Test_Ca_Event_4.jpg,n,response,n,NA,TRUE,Ca
NA,NA,NA,NA,NA,image-keyboard-response,135,503968,0.0-7.0-2.0-0.9,44,Study 44,Session 44,NA,2345,img/testing_events/Ca/Test_Ca_Event_15.jpg,c,response,c,NA,TRUE,Ca
NA,NA,NA,NA,NA,image-keyboard-response,136,509240,0.0-7.0-2.0-0.10,44,Study 44,Session 44,NA,5270,img/testing_events/Ca/Test_Ca_Event_8.jpg,e,response,n,NA,FALSE,Ca
NA,NA,NA,NA,NA,image-keyboard-response,137,511661,0.0-7.0-2.0-0.11,44,Study 44,Session 44,NA,2419,img/testing_events/Ca/Test_Ca_Event_10.jpg,u,response,u,NA,TRUE,Ca
NA,NA,NA,NA,NA,image-keyboard-response,138,515809,0.0-7.0-2.0-0.12,44,Study 44,Session 44,NA,4147,img/testing_events/Ca/Test_Ca_Event_7.jpg,c,response,c,NA,TRUE,Ca
NA,NA,NA,NA,NA,image-keyboard-response,139,521269,0.0-7.0-2.0-0.13,44,Study 44,Session 44,NA,5457,img/testing_events/Ca/Test_Ca_Event_14.jpg,u,response,u,NA,TRUE,Ca
NA,NA,NA,NA,NA,image-keyboard-response,140,527477,0.0-7.0-2.0-0.14,44,Study 44,Session 44,NA,6206,img/testing_events/Ca/Test_Ca_Event_16.jpg,e,response,n,NA,FALSE,Ca
NA,NA,NA,NA,NA,image-keyboard-response,141,528710,0.0-7.0-2.0-0.15,44,Study 44,Session 44,NA,1231,img/testing_events/Ca/Test_Ca_Event_3.jpg,c,response,c,NA,TRUE,Ca
NA,NA,NA,NA,NA,image-keyboard-response,142,531052,0.0-7.0-2.0-0.16,44,Study 44,Session 44,NA,2340,img/testing_events/Ca/Test_Ca_Event_9.jpg,c,response,e,NA,FALSE,Ca
NA,NA,NA,NA,NA,image-keyboard-response,143,539946,0.0-7.0-2.0-0.17,44,Study 44,Session 44,NA,8893,img/testing_events/Ca/Test_Ca_Event_12.jpg,e,response,n,NA,FALSE,Ca
NA,NA,NA,NA,NA,image-keyboard-response,144,540873,0.0-7.0-2.0-0.18,44,Study 44,Session 44,NA,926,img/testing_events/Ca/Test_Ca_Event_19.jpg,c,response,c,NA,TRUE,Ca
NA,NA,NA,NA,NA,image-keyboard-response,145,542873,0.0-7.0-2.0-0.19,44,Study 44,Session 44,NA,1998,img/testing_events/Ca/Test_Ca_Event_20.jpg,n,response,n,NA,TRUE,Ca
NA,NA,NA,NA,NA,image-keyboard-response,146,547496,0.0-7.0-2.0-0.20,44,Study 44,Session 44,NA,4622,img/testing_events/Ca/Test_Ca_Event_22.jpg,e,response,u,NA,FALSE,Ca
NA,NA,NA,NA,NA,image-keyboard-response,147,549933,0.0-7.0-2.0-0.21,44,Study 44,Session 44,NA,2435,img/testing_events/Ca/Test_Ca_Event_17.jpg,u,response,e,NA,FALSE,Ca
NA,NA,NA,NA,NA,image-keyboard-response,148,552094,0.0-7.0-2.0-0.22,44,Study 44,Session 44,NA,2160,img/testing_events/Ca/Test_Ca_Event_2.jpg,u,response,u,NA,TRUE,Ca
NA,NA,NA,NA,NA,image-keyboard-response,149,554570,0.0-7.0-2.0-0.23,44,Study 44,Session 44,NA,2475,img/testing_events/Ca/Test_Ca_Event_21.jpg,e,response,e,NA,TRUE,Ca
NA,NA,NA,NA,NA,image-keyboard-response,150,560682,0.0-7.0-3.0-0.0,44,Study 44,Session 44,NA,6110,img/testing_events/Cb/Test_Cb_Event_16.jpg,u,response,e,NA,FALSE,Cb
NA,NA,NA,NA,NA,image-keyboard-response,151,563769,0.0-7.0-3.0-0.1,44,Study 44,Session 44,NA,3085,img/testing_events/Cb/Test_Cb_Event_22.jpg,n,response,c,NA,FALSE,Cb
NA,NA,NA,NA,NA,image-keyboard-response,152,565861,0.0-7.0-3.0-0.2,44,Study 44,Session 44,NA,2090,img/testing_events/Cb/Test_Cb_Event_12.jpg,e,response,e,NA,TRUE,Cb
NA,NA,NA,NA,NA,image-keyboard-response,153,567741,0.0-7.0-3.0-0.3,44,Study 44,Session 44,NA,1866,img/testing_events/Cb/Test_Cb_Event_11.jpg,n,response,n,NA,TRUE,Cb
NA,NA,NA,NA,NA,image-keyboard-response,154,572221,0.0-7.0-3.0-0.4,44,Study 44,Session 44,NA,4478,img/testing_events/Cb/Test_Cb_Event_17.jpg,n,response,u,NA,FALSE,Cb
NA,NA,NA,NA,NA,image-keyboard-response,155,574822,0.0-7.0-3.0-0.5,44,Study 44,Session 44,NA,2599,img/testing_events/Cb/Test_Cb_Event_9.jpg,c,response,u,NA,FALSE,Cb
NA,NA,NA,NA,NA,image-keyboard-response,156,578011,0.0-7.0-3.0-0.6,44,Study 44,Session 44,NA,3188,img/testing_events/Cb/Test_Cb_Event_5.jpg,u,response,u,NA,TRUE,Cb
NA,NA,NA,NA,NA,image-keyboard-response,157,581340,0.0-7.0-3.0-0.7,44,Study 44,Session 44,NA,3327,img/testing_events/Cb/Test_Cb_Event_10.jpg,n,response,c,NA,FALSE,Cb
NA,NA,NA,NA,NA,image-keyboard-response,158,585812,0.0-7.0-3.0-0.8,44,Study 44,Session 44,NA,4470,img/testing_events/Cb/Test_Cb_Event_24.jpg,e,response,e,NA,TRUE,Cb
NA,NA,NA,NA,NA,image-keyboard-response,159,588556,0.0-7.0-3.0-0.9,44,Study 44,Session 44,NA,2743,img/testing_events/Cb/Test_Cb_Event_4.jpg,c,response,e,NA,FALSE,Cb
NA,NA,NA,NA,NA,image-keyboard-response,160,589792,0.0-7.0-3.0-0.10,44,Study 44,Session 44,NA,1232,img/testing_events/Cb/Test_Cb_Event_15.jpg,n,response,n,NA,TRUE,Cb
NA,NA,NA,NA,NA,image-keyboard-response,161,591954,0.0-7.0-3.0-0.11,44,Study 44,Session 44,NA,2161,img/testing_events/Cb/Test_Cb_Event_3.jpg,n,response,n,NA,TRUE,Cb
NA,NA,NA,NA,NA,image-keyboard-response,162,594977,0.0-7.0-3.0-0.12,44,Study 44,Session 44,NA,3020,img/testing_events/Cb/Test_Cb_Event_6.jpg,c,response,c,NA,TRUE,Cb
NA,NA,NA,NA,NA,image-keyboard-response,163,598053,0.0-7.0-3.0-0.13,44,Study 44,Session 44,NA,3074,img/testing_events/Cb/Test_Cb_Event_7.jpg,c,response,n,NA,FALSE,Cb
NA,NA,NA,NA,NA,image-keyboard-response,164,600792,0.0-7.0-3.0-0.14,44,Study 44,Session 44,NA,2737,img/testing_events/Cb/Test_Cb_Event_1.jpg,e,response,u,NA,FALSE,Cb
NA,NA,NA,NA,NA,image-keyboard-response,165,605102,0.0-7.0-3.0-0.15,44,Study 44,Session 44,NA,4308,img/testing_events/Cb/Test_Cb_Event_8.jpg,u,response,e,NA,FALSE,Cb
NA,NA,NA,NA,NA,image-keyboard-response,166,609448,0.0-7.0-3.0-0.16,44,Study 44,Session 44,NA,4344,img/testing_events/Cb/Test_Cb_Event_21.jpg,u,response,u,NA,TRUE,Cb
NA,NA,NA,NA,NA,image-keyboard-response,167,610760,0.0-7.0-3.0-0.17,44,Study 44,Session 44,NA,1310,img/testing_events/Cb/Test_Cb_Event_20.jpg,e,response,e,NA,TRUE,Cb
NA,NA,NA,NA,NA,image-keyboard-response,168,615598,0.0-7.0-3.0-0.18,44,Study 44,Session 44,NA,4836,img/testing_events/Cb/Test_Cb_Event_14.jpg,c,response,c,NA,TRUE,Cb
NA,NA,NA,NA,NA,image-keyboard-response,169,617035,0.0-7.0-3.0-0.19,44,Study 44,Session 44,NA,1435,img/testing_events/Cb/Test_Cb_Event_23.jpg,n,response,n,NA,TRUE,Cb
NA,NA,NA,NA,NA,image-keyboard-response,170,618021,0.0-7.0-3.0-0.20,44,Study 44,Session 44,NA,984,img/testing_events/Cb/Test_Cb_Event_19.jpg,n,response,n,NA,TRUE,Cb
NA,NA,NA,NA,NA,image-keyboard-response,171,621335,0.0-7.0-3.0-0.21,44,Study 44,Session 44,NA,3311,img/testing_events/Cb/Test_Cb_Event_18.jpg,n,response,c,NA,FALSE,Cb
NA,NA,NA,NA,NA,image-keyboard-response,172,622929,0.0-7.0-3.0-0.22,44,Study 44,Session 44,NA,1592,img/testing_events/Cb/Test_Cb_Event_2.jpg,n,response,c,NA,FALSE,Cb
NA,NA,NA,NA,NA,image-keyboard-response,173,627846,0.0-7.0-3.0-0.23,44,Study 44,Session 44,NA,4916,img/testing_events/Cb/Test_Cb_Event_13.jpg,u,response,u,NA,TRUE,Cb
NA,NA,NA,NA,NA,image-keyboard-response,174,635909,0.0-7.0-4.0-0.0,44,Study 44,Session 44,NA,8061,img/testing_events/Ab/Test_Ab_Event_1.jpg,n,response,e,NA,FALSE,Ab
NA,NA,NA,NA,NA,image-keyboard-response,175,636718,0.0-7.0-4.0-0.1,44,Study 44,Session 44,NA,808,img/testing_events/Ab/Test_Ab_Event_19.jpg,c,response,c,NA,TRUE,Ab
NA,NA,NA,NA,NA,image-keyboard-response,176,638770,0.0-7.0-4.0-0.2,44,Study 44,Session 44,NA,2050,img/testing_events/Ab/Test_Ab_Event_8.jpg,n,response,n,NA,TRUE,Ab
NA,NA,NA,NA,NA,image-keyboard-response,177,641028,0.0-7.0-4.0-0.3,44,Study 44,Session 44,NA,2256,img/testing_events/Ab/Test_Ab_Event_5.jpg,e,response,e,NA,TRUE,Ab
NA,NA,NA,NA,NA,image-keyboard-response,178,644248,0.0-7.0-4.0-0.4,44,Study 44,Session 44,NA,3218,img/testing_events/Ab/Test_Ab_Event_21.jpg,n,response,e,NA,FALSE,Ab
NA,NA,NA,NA,NA,image-keyboard-response,179,645398,0.0-7.0-4.0-0.5,44,Study 44,Session 44,NA,1149,img/testing_events/Ab/Test_Ab_Event_11.jpg,c,response,c,NA,TRUE,Ab
NA,NA,NA,NA,NA,image-keyboard-response,180,648117,0.0-7.0-4.0-0.6,44,Study 44,Session 44,NA,2717,img/testing_events/Ab/Test_Ab_Event_12.jpg,n,response,n,NA,TRUE,Ab
NA,NA,NA,NA,NA,image-keyboard-response,181,650381,0.0-7.0-4.0-0.7,44,Study 44,Session 44,NA,2263,img/testing_events/Ab/Test_Ab_Event_4.jpg,c,response,n,NA,FALSE,Ab
NA,NA,NA,NA,NA,image-keyboard-response,182,654845,0.0-7.0-4.0-0.8,44,Study 44,Session 44,NA,4462,img/testing_events/Ab/Test_Ab_Event_7.jpg,e,response,c,NA,FALSE,Ab
NA,NA,NA,NA,NA,image-keyboard-response,183,656126,0.0-7.0-4.0-0.9,44,Study 44,Session 44,NA,1279,img/testing_events/Ab/Test_Ab_Event_16.jpg,n,response,n,NA,TRUE,Ab
NA,NA,NA,NA,NA,image-keyboard-response,184,658442,0.0-7.0-4.0-0.10,44,Study 44,Session 44,NA,2314,img/testing_events/Ab/Test_Ab_Event_6.jpg,u,response,u,NA,TRUE,Ab
NA,NA,NA,NA,NA,image-keyboard-response,185,659699,0.0-7.0-4.0-0.11,44,Study 44,Session 44,NA,1255,img/testing_events/Ab/Test_Ab_Event_15.jpg,c,response,c,NA,TRUE,Ab
NA,NA,NA,NA,NA,image-keyboard-response,186,664443,0.0-7.0-4.0-0.12,44,Study 44,Session 44,NA,4742,img/testing_events/Ab/Test_Ab_Event_18.jpg,u,response,u,NA,TRUE,Ab
NA,NA,NA,NA,NA,image-keyboard-response,187,665420,0.0-7.0-4.0-0.13,44,Study 44,Session 44,NA,975,img/testing_events/Ab/Test_Ab_Event_2.jpg,u,response,u,NA,TRUE,Ab
NA,NA,NA,NA,NA,image-keyboard-response,188,668290,0.0-7.0-4.0-0.14,44,Study 44,Session 44,NA,2869,img/testing_events/Ab/Test_Ab_Event_13.jpg,e,response,e,NA,TRUE,Ab
NA,NA,NA,NA,NA,image-keyboard-response,189,669340,0.0-7.0-4.0-0.15,44,Study 44,Session 44,NA,1049,img/testing_events/Ab/Test_Ab_Event_3.jpg,c,response,c,NA,TRUE,Ab
NA,NA,NA,NA,NA,image-keyboard-response,190,670955,0.0-7.0-4.0-0.16,44,Study 44,Session 44,NA,1612,img/testing_events/Ab/Test_Ab_Event_24.jpg,n,response,n,NA,TRUE,Ab
NA,NA,NA,NA,NA,image-keyboard-response,191,673102,0.0-7.0-4.0-0.17,44,Study 44,Session 44,NA,2144,img/testing_events/Ab/Test_Ab_Event_10.jpg,n,response,u,NA,FALSE,Ab
NA,NA,NA,NA,NA,image-keyboard-response,192,674325,0.0-7.0-4.0-0.18,44,Study 44,Session 44,NA,1222,img/testing_events/Ab/Test_Ab_Event_20.jpg,n,response,n,NA,TRUE,Ab
NA,NA,NA,NA,NA,image-keyboard-response,193,676194,0.0-7.0-4.0-0.19,44,Study 44,Session 44,NA,1867,img/testing_events/Ab/Test_Ab_Event_22.jpg,n,response,u,NA,FALSE,Ab
NA,NA,NA,NA,NA,image-keyboard-response,194,678671,0.0-7.0-4.0-0.20,44,Study 44,Session 44,NA,2475,img/testing_events/Ab/Test_Ab_Event_17.jpg,e,response,e,NA,TRUE,Ab
NA,NA,NA,NA,NA,image-keyboard-response,195,679783,0.0-7.0-4.0-0.21,44,Study 44,Session 44,NA,1110,img/testing_events/Ab/Test_Ab_Event_23.jpg,c,response,c,NA,TRUE,Ab
NA,NA,NA,NA,NA,image-keyboard-response,196,683944,0.0-7.0-4.0-0.22,44,Study 44,Session 44,NA,4160,img/testing_events/Ab/Test_Ab_Event_9.jpg,u,response,e,NA,FALSE,Ab
NA,NA,NA,NA,NA,image-keyboard-response,197,687154,0.0-7.0-4.0-0.23,44,Study 44,Session 44,NA,3208,img/testing_events/Ab/Test_Ab_Event_14.jpg,u,response,u,NA,TRUE,Ab
NA,NA,NA,NA,NA,image-keyboard-response,198,694387,0.0-7.0-5.0-0.0,44,Study 44,Session 44,NA,7231,img/testing_events/Bc/Test_Bc_Event_5.jpg,n,response,n,NA,TRUE,Bc
NA,NA,NA,NA,NA,image-keyboard-response,199,695890,0.0-7.0-5.0-0.1,44,Study 44,Session 44,NA,1501,img/testing_events/Bc/Test_Bc_Event_6.jpg,n,response,e,NA,FALSE,Bc
NA,NA,NA,NA,NA,image-keyboard-response,200,698022,0.0-7.0-5.0-0.2,44,Study 44,Session 44,NA,2130,img/testing_events/Bc/Test_Bc_Event_13.jpg,c,response,n,NA,FALSE,Bc
NA,NA,NA,NA,NA,image-keyboard-response,201,699242,0.0-7.0-5.0-0.3,44,Study 44,Session 44,NA,1218,img/testing_events/Bc/Test_Bc_Event_15.jpg,u,response,u,NA,TRUE,Bc
NA,NA,NA,NA,NA,image-keyboard-response,202,704534,0.0-7.0-5.0-0.4,44,Study 44,Session 44,NA,5291,img/testing_events/Bc/Test_Bc_Event_1.jpg,n,response,n,NA,TRUE,Bc
NA,NA,NA,NA,NA,image-keyboard-response,203,706254,0.0-7.0-5.0-0.5,44,Study 44,Session 44,NA,1718,img/testing_events/Bc/Test_Bc_Event_2.jpg,e,response,e,NA,TRUE,Bc
NA,NA,NA,NA,NA,image-keyboard-response,204,709528,0.0-7.0-5.0-0.6,44,Study 44,Session 44,NA,3273,img/testing_events/Bc/Test_Bc_Event_21.jpg,e,response,n,NA,FALSE,Bc
NA,NA,NA,NA,NA,image-keyboard-response,205,713020,0.0-7.0-5.0-0.7,44,Study 44,Session 44,NA,3490,img/testing_events/Bc/Test_Bc_Event_22.jpg,c,response,e,NA,FALSE,Bc
NA,NA,NA,NA,NA,image-keyboard-response,206,714224,0.0-7.0-5.0-0.8,44,Study 44,Session 44,NA,1201,img/testing_events/Bc/Test_Bc_Event_8.jpg,u,response,c,NA,FALSE,Bc
NA,NA,NA,NA,NA,image-keyboard-response,207,718527,0.0-7.0-5.0-0.9,44,Study 44,Session 44,NA,4300,img/testing_events/Bc/Test_Bc_Event_7.jpg,n,response,u,NA,FALSE,Bc
NA,NA,NA,NA,NA,image-keyboard-response,208,719906,0.0-7.0-5.0-0.10,44,Study 44,Session 44,NA,1377,img/testing_events/Bc/Test_Bc_Event_9.jpg,u,response,n,NA,FALSE,Bc
NA,NA,NA,NA,NA,image-keyboard-response,209,721145,0.0-7.0-5.0-0.11,44,Study 44,Session 44,NA,1237,img/testing_events/Bc/Test_Bc_Event_11.jpg,n,response,u,NA,FALSE,Bc
NA,NA,NA,NA,NA,image-keyboard-response,210,723297,0.0-7.0-5.0-0.12,44,Study 44,Session 44,NA,2151,img/testing_events/Bc/Test_Bc_Event_12.jpg,c,response,c,NA,TRUE,Bc
NA,NA,NA,NA,NA,image-keyboard-response,211,731013,0.0-7.0-5.0-0.13,44,Study 44,Session 44,NA,7715,img/testing_events/Bc/Test_Bc_Event_14.jpg,u,response,e,NA,FALSE,Bc
NA,NA,NA,NA,NA,image-keyboard-response,212,733917,0.0-7.0-5.0-0.14,44,Study 44,Session 44,NA,2902,img/testing_events/Bc/Test_Bc_Event_19.jpg,u,response,u,NA,TRUE,Bc
NA,NA,NA,NA,NA,image-keyboard-response,213,735528,0.0-7.0-5.0-0.15,44,Study 44,Session 44,NA,1610,img/testing_events/Bc/Test_Bc_Event_3.jpg,u,response,u,NA,TRUE,Bc
NA,NA,NA,NA,NA,image-keyboard-response,214,738392,0.0-7.0-5.0-0.16,44,Study 44,Session 44,NA,2863,img/testing_events/Bc/Test_Bc_Event_17.jpg,u,response,n,NA,FALSE,Bc
NA,NA,NA,NA,NA,image-keyboard-response,215,739943,0.0-7.0-5.0-0.17,44,Study 44,Session 44,NA,1550,img/testing_events/Bc/Test_Bc_Event_20.jpg,c,response,c,NA,TRUE,Bc
NA,NA,NA,NA,NA,image-keyboard-response,216,745965,0.0-7.0-5.0-0.18,44,Study 44,Session 44,NA,6020,img/testing_events/Bc/Test_Bc_Event_18.jpg,e,response,e,NA,TRUE,Bc
NA,NA,NA,NA,NA,image-keyboard-response,217,749138,0.0-7.0-5.0-0.19,44,Study 44,Session 44,NA,3171,img/testing_events/Bc/Test_Bc_Event_10.jpg,e,response,e,NA,TRUE,Bc
NA,NA,NA,NA,NA,image-keyboard-response,218,751174,0.0-7.0-5.0-0.20,44,Study 44,Session 44,NA,2025,img/testing_events/Bc/Test_Bc_Event_16.jpg,n,response,c,NA,FALSE,Bc
NA,NA,NA,NA,NA,image-keyboard-response,219,752500,0.0-7.0-5.0-0.21,44,Study 44,Session 44,NA,1323,img/testing_events/Bc/Test_Bc_Event_23.jpg,u,response,u,NA,TRUE,Bc
NA,NA,NA,NA,NA,image-keyboard-response,220,754610,0.0-7.0-5.0-0.22,44,Study 44,Session 44,NA,2109,img/testing_events/Bc/Test_Bc_Event_24.jpg,u,response,c,NA,FALSE,Bc
NA,NA,NA,NA,NA,image-keyboard-response,221,757408,0.0-7.0-5.0-0.23,44,Study 44,Session 44,NA,2796,img/testing_events/Bc/Test_Bc_Event_4.jpg,e,response,c,NA,FALSE,Bc
NA,NA,NA,NA,NA,survey-text,222,788424,0.0-8.0,44,Study 44,Session 44,NA,30968,NA,"{""Q0"":""Nothing. It was much harder than I thought it would be!"",""Q1"":""None. "",""Q2"":""Was this supposed to be difficult or am I just dumb? (Ha)""}",NA,NA,NA,NA,NA
NA,NA,NA,NA,NA,survey-html-form,223,808217,0.0-9.0,44,Study 44,Session 44,NA,19788,NA,"{""Gender"":""Male"",""Age"":""25"",""ColorBlind"":""No"",""Education"":""Bachelors degree"",""Income"":""$50,000-$74,999"",""Race"":""Other/unknown"",""Fluent"":""Yes"",""AgeEnglish"":""0"",""Country"":""USA""}",NA,NA,NA,NA,NA
TRUE,NA,NA,NA,NA,fullscreen,224,808223,0.0-10.0,44,Study 44,Session 44,NA,NA,NA,NA,NA,NA,NA,NA,NA
