success,timeout,failed_images,failed_audio,failed_video,trial_type,trial_index,time_elapsed,internal_node_id,subject_id,study_id,session_id,view_history,rt,stimulus,response,task,correct_response,attention_duration,correct,retrieval_group
TRUE,FALSE,[],[],[],preload,0,1450,0.0-0.0,47,Study 47,Session 47,NA,NA,NA,NA,NA,NA,NA,NA,NA
TRUE,NA,NA,NA,NA,fullscreen,1,4092,0.0-1.0,47,Study 47,Session 47,NA,NA,NA,NA,NA,NA,NA,NA,NA
NA,NA,NA,NA,NA,instructions,2,5785,0.0-2.0,47,Study 47,Session 47,"[{""page_index"":0,""viewing_time"":1689}]",1689,NA,NA,NA,NA,NA,NA,NA
NA,NA,NA,NA,NA,html-keyboard-response,3,14564,0.0-3.0,47,Study 47,Session 47,NA,8779,"Welcome to the experiment. <br /><br />This experiment will take about 20 minutes. Please complete all in one sitting. <br /><br />For this study, <strong>please use</strong> a laptop or desktop computer (not a mobile phone or tablet). Also, please use either <u>Chrome or Firefox</u>. <br /><br />Once you begin, <strong>DO NOT</strong> refresh the browser, as the experiment will reset and you will lose your progress. <br /><br />Press the <strong class=""upperline"">B</strong> key on your keyboard to begin.",b,NA,NA,NA,NA,NA
NA,NA,NA,NA,NA,instructions,4,32086,0.0-4.0,47,Study 47,Session 47,"[{""page_index"":0,""viewing_time"":4369},{""page_index"":1,""viewing_time"":10224},{""page_index"":2,""viewing_time"":1922}]",16515,NA,NA,NA,NA,NA,NA,NA
NA,NA,NA,NA,NA,html-keyboard-response,5,35103,0.0-5.0-0.0,47,Study 47,Session 47,NA,null,"<div style=""font-size:60px;"">+</div>",null,fixation,NA,NA,NA,NA
NA,NA,NA,NA,NA,image-keyboard-response,6,41132,0.0-5.0-1.0,47,Study 47,Session 47,NA,null,img/encoding_events/Event_20.jpg,null,NA,NA,NA,NA,NA
NA,NA,NA,NA,NA,html-keyboard-response,7,41135,0.0-5.0-2.0,47,Study 47,Session 47,NA,null,Please press the <strong><u>a</u></strong> key to continue,null,response,a,0,FALSE,NA
NA,NA,NA,NA,NA,html-keyboard-response,8,41647,0.0-5.0-0.1,47,Study 47,Session 47,NA,null,"<div style=""font-size:60px;"">+</div>",null,fixation,NA,NA,NA,NA
NA,NA,NA,NA,NA,image-keyboard-response,9,47662,0.0-5.0-1.1,47,Study 47,Session 47,NA,null,img/encoding_events/Event_17.jpg,null,NA,NA,NA,NA,NA
NA,NA,NA,NA,NA,html-keyboard-response,10,47680,0.0-5.0-2.1,47,Study 47,Session 47,NA,null,Please press the <strong><u>f</u></strong> key to continue,null,response,f,0,FALSE,NA
NA,NA,NA,NA,NA,html-keyboard-response,11,48195,0.0-5.0-0.2,47,Study 47,Session 47,NA,null,"<div style=""font-size:60px;"">+</div>",null,fixation,NA,NA,NA,NA
NA,NA,NA,NA,NA,image-keyboard-response,12,54214,0.0-5.0-1.2,47,Study 47,Session 47,NA,null,img/encoding_events/Event_3.jpg,null,NA,NA,NA,NA,NA
NA,NA,NA,NA,NA,html-keyboard-response,13,54230,0.0-5.0-2.2,47,Study 47,Session 47,NA,null,Please press the <strong><u>j</u></strong> key to continue,null,response,j,0,FALSE,NA
NA,NA,NA,NA,NA,html-keyboard-response,14,54735,0.0-5.0-0.3,47,Study 47,Session 47,NA,null,"<div style=""font-size:60px;"">+</div>",null,fixation,NA,NA,NA,NA
NA,NA,NA,NA,NA,image-keyboard-response,15,60755,0.0-5.0-1.3,47,Study 47,Session 47,NA,null,img/encoding_events/Event_12.jpg,null,NA,NA,NA,NA,NA
NA,NA,NA,NA,NA,html-keyboard-response,16,61971,0.0-5.0-2.3,47,Study 47,Session 47,NA,1216,Please press the <strong><u>f</u></strong> key to continue,f,response,f,6000,TRUE,NA
NA,NA,NA,NA,NA,html-keyboard-response,17,62485,0.0-5.0-0.4,47,Study 47,Session 47,NA,null,"<div style=""font-size:60px;"">+</div>",null,fixation,NA,NA,NA,NA
NA,NA,NA,NA,NA,image-keyboard-response,18,68503,0.0-5.0-1.4,47,Study 47,Session 47,NA,null,img/encoding_events/Event_18.jpg,null,NA,NA,NA,NA,NA
NA,NA,NA,NA,NA,html-keyboard-response,19,68508,0.0-5.0-2.4,47,Study 47,Session 47,NA,null,Please press the <strong><u>j</u></strong> key to continue,null,response,j,0,FALSE,NA
NA,NA,NA,NA,NA,html-keyboard-response,20,69021,0.0-5.0-0.5,47,Study 47,Session 47,NA,null,"<div style=""font-size:60px;"">+</div>",null,fixation,NA,NA,NA,NA
NA,NA,NA,NA,NA,image-keyboard-response,21,75046,0.0-5.0-1.5,47,Study 47,Session 47,NA,null,img/encoding_events/Event_19.jpg,null,NA,NA,NA,NA,NA
NA,NA,NA,NA,NA,html-keyboard-response,22,75068,0.0-5.0-2.5,47,Study 47,Session 47,NA,null,Please press the <strong><u>a</u></strong> key to continue,null,response,a,0,FALSE,NA
NA,NA,NA,NA,NA,html-keyboard-response,23,75570,0.0-5.0-0.6,47,Study 47,Session 47,NA,null,"<div style=""font-size:60px;"">+</div>",null,fixation,NA,NA,NA,NA
NA,NA,NA,NA,NA,image-keyboard-response,24,81597,0.0-5.0-1.6,47,Study 47,Session 47,NA,null,img/encoding_events/Event_24.jpg,null,NA,NA,NA,NA,NA
NA,NA,NA,NA,NA,html-keyboard-response,25,81621,0.0-5.0-2.6,47,Study 47,Session 47,NA,null,Please press the <strong><u>j</u></strong> key to continue,null,response,j,0,FALSE,NA
NA,NA,NA,NA,NA,html-keyboard-response,26,82130,0.0-5.0-0.7,47,Study 47,Session 47,NA,null,"<div style=""font-size:60px;"">+</div>",null,fixation,NA,NA,NA,NA
NA,NA,NA,NA,NA,image-keyboard-response,27,88151,0.0-5.0-1.7,47,Study 47,Session 47,NA,null,img/encoding_events/Event_9.jpg,null,NA,NA,NA,NA,NA
NA,NA,NA,NA,NA,html-keyboard-response,28,89517,0.0-5.0-2.7,47,Study 47,Session 47,NA,1365,Please press the <strong><u>s</u></strong> key to continue,s,response,s,6000,TRUE,NA
NA,NA,NA,NA,NA,html-keyboard-response,29,90027,0.0-5.0-0.8,47,Study 47,Session 47,NA,null,"<div style=""font-size:60px;"">+</div>",null,fixation,NA,NA,NA,NA
NA,NA,NA,NA,NA,image-keyboard-response,30,96051,0.0-5.0-1.8,47,Study 47,Session 47,NA,null,img/encoding_events/Event_2.jpg,null,NA,NA,NA,NA,NA
NA,NA,NA,NA,NA,html-keyboard-response,31,96055,0.0-5.0-2.8,47,Study 47,Session 47,NA,null,Please press the <strong><u>k</u></strong> key to continue,null,response,k,0,FALSE,NA
NA,NA,NA,NA,NA,html-keyboard-response,32,96570,0.0-5.0-0.9,47,Study 47,Session 47,NA,null,"<div style=""font-size:60px;"">+</div>",null,fixation,NA,NA,NA,NA
NA,NA,NA,NA,NA,image-keyboard-response,33,102578,0.0-5.0-1.9,47,Study 47,Session 47,NA,null,img/encoding_events/Event_10.jpg,null,NA,NA,NA,NA,NA
NA,NA,NA,NA,NA,html-keyboard-response,34,102594,0.0-5.0-2.9,47,Study 47,Session 47,NA,null,Please press the <strong><u>a</u></strong> key to continue,null,response,a,0,FALSE,NA
NA,NA,NA,NA,NA,html-keyboard-response,35,103097,0.0-5.0-0.10,47,Study 47,Session 47,NA,null,"<div style=""font-size:60px;"">+</div>",null,fixation,NA,NA,NA,NA
NA,NA,NA,NA,NA,image-keyboard-response,36,109122,0.0-5.0-1.10,47,Study 47,Session 47,NA,null,img/encoding_events/Event_21.jpg,null,NA,NA,NA,NA,NA
NA,NA,NA,NA,NA,html-keyboard-response,37,109137,0.0-5.0-2.10,47,Study 47,Session 47,NA,null,Please press the <strong><u>s</u></strong> key to continue,null,response,s,0,FALSE,NA
NA,NA,NA,NA,NA,html-keyboard-response,38,109652,0.0-5.0-0.11,47,Study 47,Session 47,NA,null,"<div style=""font-size:60px;"">+</div>",null,fixation,NA,NA,NA,NA
NA,NA,NA,NA,NA,image-keyboard-response,39,115661,0.0-5.0-1.11,47,Study 47,Session 47,NA,null,img/encoding_events/Event_1.jpg,null,NA,NA,NA,NA,NA
NA,NA,NA,NA,NA,html-keyboard-response,40,116795,0.0-5.0-2.11,47,Study 47,Session 47,NA,1134,Please press the <strong><u>a</u></strong> key to continue,a,response,a,6000,TRUE,NA
NA,NA,NA,NA,NA,html-keyboard-response,41,117300,0.0-5.0-0.12,47,Study 47,Session 47,NA,null,"<div style=""font-size:60px;"">+</div>",null,fixation,NA,NA,NA,NA
NA,NA,NA,NA,NA,image-keyboard-response,42,123324,0.0-5.0-1.12,47,Study 47,Session 47,NA,null,img/encoding_events/Event_22.jpg,null,NA,NA,NA,NA,NA
NA,NA,NA,NA,NA,html-keyboard-response,43,123328,0.0-5.0-2.12,47,Study 47,Session 47,NA,null,Please press the <strong><u>d</u></strong> key to continue,null,response,d,0,FALSE,NA
NA,NA,NA,NA,NA,html-keyboard-response,44,123840,0.0-5.0-0.13,47,Study 47,Session 47,NA,null,"<div style=""font-size:60px;"">+</div>",null,fixation,NA,NA,NA,NA
NA,NA,NA,NA,NA,image-keyboard-response,45,129857,0.0-5.0-1.13,47,Study 47,Session 47,NA,null,img/encoding_events/Event_23.jpg,null,NA,NA,NA,NA,NA
NA,NA,NA,NA,NA,html-keyboard-response,46,129880,0.0-5.0-2.13,47,Study 47,Session 47,NA,null,Please press the <strong><u>a</u></strong> key to continue,null,response,a,0,FALSE,NA
NA,NA,NA,NA,NA,html-keyboard-response,47,130382,0.0-5.0-0.14,47,Study 47,Session 47,NA,null,"<div style=""font-size:60px;"">+</div>",null,fixation,NA,NA,NA,NA
NA,NA,NA,NA,NA,image-keyboard-response,48,136404,0.0-5.0-1.14,47,Study 47,Session 47,NA,null,img/encoding_events/Event_4.jpg,null,NA,NA,NA,NA,NA
NA,NA,NA,NA,NA,html-keyboard-response,49,136421,0.0-5.0-2.14,47,Study 47,Session 47,NA,null,Please press the <strong><u>a</u></strong> key to continue,null,response,a,0,FALSE,NA
NA,NA,NA,NA,NA,html-keyboard-response,50,136921,0.0-5.0-0.15,47,Study 47,Session 47,NA,null,"<div style=""font-size:60px;"">+</div>",null,fixation,NA,NA,NA,NA
NA,NA,NA,NA,NA,image-keyboard-response,51,142938,0.0-5.0-1.15,47,Study 47,Session 47,NA,null,img/encoding_events/Event_7.jpg,null,NA,NA,NA,NA,NA
NA,NA,NA,NA,NA,html-keyboard-response,52,144156,0.0-5.0-2.15,47,Study 47,Session 47,NA,1218,Please press the <strong><u>j</u></strong> key to continue,j,response,j,6000,TRUE,NA
NA,NA,NA,NA,NA,html-keyboard-response,53,144670,0.0-5.0-0.16,47,Study 47,Session 47,NA,null,"<div style=""font-size:60px;"">+</div>",null,fixation,NA,NA,NA,NA
NA,NA,NA,NA,NA,image-keyboard-response,54,150693,0.0-5.0-1.16,47,Study 47,Session 47,NA,null,img/encoding_events/Event_11.jpg,null,NA,NA,NA,NA,NA
NA,NA,NA,NA,NA,html-keyboard-response,55,150694,0.0-5.0-2.16,47,Study 47,Session 47,NA,null,Please press the <strong><u>d</u></strong> key to continue,null,response,d,0,FALSE,NA
NA,NA,NA,NA,NA,html-keyboard-response,56,151208,0.0-5.0-0.17,47,Study 47,Session 47,NA,null,"<div style=""font-size:60px;"">+</div>",null,fixation,NA,NA,NA,NA
NA,NA,NA,NA,NA,image-keyboard-response,57,157233,0.0-5.0-1.17,47,Study 47,Session 47,NA,null,img/encoding_events/Event_13.jpg,null,NA,NA,NA,NA,NA
NA,NA,NA,NA,NA,html-keyboard-response,58,157249,0.0-5.0-2.17,47,Study 47,Session 47,NA,null,Please press the <strong><u>j</u></strong> key to continue,null,response,j,0,FALSE,NA
NA,NA,NA,NA,NA,html-keyboard-response,59,157751,0.0-5.0-0.18,47,Study 47,Session 47,NA,null,"<div style=""font-size:60px;"">+</div>",null,fixation,NA,NA,NA,NA
NA,NA,NA,NA,NA,image-keyboard-response,60,163761,0.0-5.0-1.18,47,Study 47,Session 47,NA,null,img/encoding_events/Event_8.jpg,null,NA,NA,NA,NA,NA
NA,NA,NA,NA,NA,html-keyboard-response,61,163777,0.0-5.0-2.18,47,Study 47,Session 47,NA,null,Please press the <strong><u>s</u></strong> key to continue,null,response,s,0,FALSE,NA
NA,NA,NA,NA,NA,html-keyboard-response,62,164278,0.0-5.0-0.19,47,Study 47,Session 47,NA,null,"<div style=""font-size:60px;"">+</div>",null,fixation,NA,NA,NA,NA
NA,NA,NA,NA,NA,image-keyboard-response,63,170287,0.0-5.0-1.19,47,Study 47,Session 47,NA,null,img/encoding_events/Event_16.jpg,null,NA,NA,NA,NA,NA
NA,NA,NA,NA,NA,html-keyboard-response,64,171102,0.0-5.0-2.19,47,Study 47,Session 47,NA,815,Please press the <strong><u>a</u></strong> key to continue,a,response,a,6000,TRUE,NA
NA,NA,NA,NA,NA,html-keyboard-response,65,171607,0.0-5.0-0.20,47,Study 47,Session 47,NA,null,"<div style=""font-size:60px;"">+</div>",null,fixation,NA,NA,NA,NA
NA,NA,NA,NA,NA,image-keyboard-response,66,177625,0.0-5.0-1.20,47,Study 47,Session 47,NA,null,img/encoding_events/Event_14.jpg,null,NA,NA,NA,NA,NA
NA,NA,NA,NA,NA,html-keyboard-response,67,177626,0.0-5.0-2.20,47,Study 47,Session 47,NA,null,Please press the <strong><u>j</u></strong> key to continue,null,response,j,0,FALSE,NA
NA,NA,NA,NA,NA,html-keyboard-response,68,178127,0.0-5.0-0.21,47,Study 47,Session 47,NA,null,"<div style=""font-size:60px;"">+</div>",null,fixation,NA,NA,NA,NA
NA,NA,NA,NA,NA,image-keyboard-response,69,184150,0.0-5.0-1.21,47,Study 47,Session 47,NA,null,img/encoding_events/Event_5.jpg,null,NA,NA,NA,NA,NA
NA,NA,NA,NA,NA,html-keyboard-response,70,184172,0.0-5.0-2.21,47,Study 47,Session 47,NA,null,Please press the <strong><u>k</u></strong> key to continue,null,response,k,0,FALSE,NA
NA,NA,NA,NA,NA,html-keyboard-response,71,184674,0.0-5.0-0.22,47,Study 47,Session 47,NA,null,"<div style=""font-size:60px;"">+</div>",null,fixation,NA,NA,NA,NA
NA,NA,NA,NA,NA,image-keyboard-response,72,190694,0.0-5.0-1.22,47,Study 47,Session 47,NA,null,img/encoding_events/Event_6.jpg,null,NA,NA,NA,NA,NA
NA,NA,NA,NA,NA,html-keyboard-response,73,190709,0.0-5.0-2.22,47,Study 47,Session 47,NA,null,Please press the <strong><u>d</u></strong> key to continue,null,response,d,0,FALSE,NA
NA,NA,NA,NA,NA,html-keyboard-response,74,191212,0.0-5.0-0.23,47,Study 47,Session 47,NA,null,"<div style=""font-size:60px;"">+</div>",null,fixation,NA,NA,NA,NA
NA,NA,NA,NA,NA,image-keyboard-response,75,197234,0.0-5.0-1.23,47,Study 47,Session 47,NA,null,img/encoding_events/Event_15.jpg,null,NA,NA,NA,NA,NA
NA,NA,NA,NA,NA,html-keyboard-response,76,198310,0.0-5.0-2.23,47,Study 47,Session 47,NA,1075,Please press the <strong><u>s</u></strong> key to continue,s,response,s,6000,TRUE,NA
NA,NA,NA,NA,NA,instructions,77,236874,0.0-6.0,47,Study 47,Session 47,"[{""page_index"":0,""viewing_time"":1606},{""page_index"":1,""viewing_time"":4216},{""page_index"":2,""viewing_time"":5805},{""page_index"":3,""viewing_time"":11808},{""page_index"":4,""viewing_time"":6380},{""page_index"":5,""viewing_time"":6424},{""page_index"":6,""viewing_time"":2326}]",38565,NA,NA,NA,NA,NA,NA,NA
NA,NA,NA,NA,NA,image-keyboard-response,78,240972,0.0-7.0-0.0-0.0,47,Study 47,Session 47,NA,1582,img/testing_events/Ac/Test_Ac_Event_15.jpg,n,response,n,NA,TRUE,Ac
NA,NA,NA,NA,NA,image-keyboard-response,79,242350,0.0-7.0-0.0-0.1,47,Study 47,Session 47,NA,1369,img/testing_events/Ac/Test_Ac_Event_6.jpg,c,response,c,NA,TRUE,Ac
NA,NA,NA,NA,NA,image-keyboard-response,80,244356,0.0-7.0-0.0-0.2,47,Study 47,Session 47,NA,1998,img/testing_events/Ac/Test_Ac_Event_4.jpg,e,response,e,NA,TRUE,Ac
NA,NA,NA,NA,NA,image-keyboard-response,81,246358,0.0-7.0-0.0-0.3,47,Study 47,Session 47,NA,1993,img/testing_events/Ac/Test_Ac_Event_2.jpg,c,response,c,NA,TRUE,Ac
NA,NA,NA,NA,NA,image-keyboard-response,82,247867,0.0-7.0-0.0-0.4,47,Study 47,Session 47,NA,1500,img/testing_events/Ac/Test_Ac_Event_13.jpg,u,response,u,NA,TRUE,Ac
NA,NA,NA,NA,NA,image-keyboard-response,83,250271,0.0-7.0-0.0-0.5,47,Study 47,Session 47,NA,2396,img/testing_events/Ac/Test_Ac_Event_3.jpg,n,response,n,NA,TRUE,Ac
NA,NA,NA,NA,NA,image-keyboard-response,84,252534,0.0-7.0-0.0-0.6,47,Study 47,Session 47,NA,2255,img/testing_events/Ac/Test_Ac_Event_22.jpg,c,response,c,NA,TRUE,Ac
NA,NA,NA,NA,NA,image-keyboard-response,85,256269,0.0-7.0-0.0-0.7,47,Study 47,Session 47,NA,3726,img/testing_events/Ac/Test_Ac_Event_1.jpg,u,response,u,NA,TRUE,Ac
NA,NA,NA,NA,NA,image-keyboard-response,86,258139,0.0-7.0-0.0-0.8,47,Study 47,Session 47,NA,1862,img/testing_events/Ac/Test_Ac_Event_11.jpg,n,response,n,NA,TRUE,Ac
NA,NA,NA,NA,NA,image-keyboard-response,87,259496,0.0-7.0-0.0-0.9,47,Study 47,Session 47,NA,1344,img/testing_events/Ac/Test_Ac_Event_21.jpg,c,response,u,NA,FALSE,Ac
NA,NA,NA,NA,NA,image-keyboard-response,88,262984,0.0-7.0-0.0-0.10,47,Study 47,Session 47,NA,3480,img/testing_events/Ac/Test_Ac_Event_18.jpg,c,response,c,NA,TRUE,Ac
NA,NA,NA,NA,NA,image-keyboard-response,89,265571,0.0-7.0-0.0-0.11,47,Study 47,Session 47,NA,2580,img/testing_events/Ac/Test_Ac_Event_20.jpg,e,response,e,NA,TRUE,Ac
NA,NA,NA,NA,NA,image-keyboard-response,90,268353,0.0-7.0-0.0-0.12,47,Study 47,Session 47,NA,2769,img/testing_events/Ac/Test_Ac_Event_7.jpg,n,response,n,NA,TRUE,Ac
NA,NA,NA,NA,NA,image-keyboard-response,91,270650,0.0-7.0-0.0-0.13,47,Study 47,Session 47,NA,2290,img/testing_events/Ac/Test_Ac_Event_17.jpg,u,response,u,NA,TRUE,Ac
NA,NA,NA,NA,NA,image-keyboard-response,92,272458,0.0-7.0-0.0-0.14,47,Study 47,Session 47,NA,1795,img/testing_events/Ac/Test_Ac_Event_23.jpg,n,response,n,NA,TRUE,Ac
NA,NA,NA,NA,NA,image-keyboard-response,93,274387,0.0-7.0-0.0-0.15,47,Study 47,Session 47,NA,1921,img/testing_events/Ac/Test_Ac_Event_5.jpg,u,response,u,NA,TRUE,Ac
NA,NA,NA,NA,NA,image-keyboard-response,94,279767,0.0-7.0-0.0-0.16,47,Study 47,Session 47,NA,5372,img/testing_events/Ac/Test_Ac_Event_24.jpg,e,response,e,NA,TRUE,Ac
NA,NA,NA,NA,NA,image-keyboard-response,95,281749,0.0-7.0-0.0-0.17,47,Study 47,Session 47,NA,1973,img/testing_events/Ac/Test_Ac_Event_9.jpg,u,response,u,NA,TRUE,Ac
NA,NA,NA,NA,NA,image-keyboard-response,96,284168,0.0-7.0-0.0-0.18,47,Study 47,Session 47,NA,2410,img/testing_events/Ac/Test_Ac_Event_12.jpg,e,response,e,NA,TRUE,Ac
NA,NA,NA,NA,NA,image-keyboard-response,97,286130,0.0-7.0-0.0-0.19,47,Study 47,Session 47,NA,1956,img/testing_events/Ac/Test_Ac_Event_19.jpg,n,response,n,NA,TRUE,Ac
NA,NA,NA,NA,NA,image-keyboard-response,98,287919,0.0-7.0-0.0-0.20,47,Study 47,Session 47,NA,1780,img/testing_events/Ac/Test_Ac_Event_16.jpg,e,response,e,NA,TRUE,Ac
NA,NA,NA,NA,NA,image-keyboard-response,99,289705,0.0-7.0-0.0-0.21,47,Study 47,Session 47,NA,1777,img/testing_events/Ac/Test_Ac_Event_10.jpg,c,response,c,NA,TRUE,Ac
NA,NA,NA,NA,NA,image-keyboard-response,100,292188,0.0-7.0-0.0-0.22,47,Study 47,Session 47,NA,2475,img/testing_events/Ac/Test_Ac_Event_8.jpg,e,response,e,NA,TRUE,Ac
NA,NA,NA,NA,NA,image-keyboard-response,101,293781,0.0-7.0-0.0-0.23,47,Study 47,Session 47,NA,1584,img/testing_events/Ac/Test_Ac_Event_14.jpg,c,response,c,NA,TRUE,Ac
NA,NA,NA,NA,NA,image-keyboard-response,102,297121,0.0-7.0-1.0-0.0,47,Study 47,Session 47,NA,3328,img/testing_events/Ca/Test_Ca_Event_16.jpg,n,response,n,NA,TRUE,Ca
NA,NA,NA,NA,NA,image-keyboard-response,103,298840,0.0-7.0-1.0-0.1,47,Study 47,Session 47,NA,1708,img/testing_events/Ca/Test_Ca_Event_2.jpg,u,response,u,NA,TRUE,Ca
NA,NA,NA,NA,NA,image-keyboard-response,104,301080,0.0-7.0-1.0-0.2,47,Study 47,Session 47,NA,2231,img/testing_events/Ca/Test_Ca_Event_23.jpg,c,response,c,NA,TRUE,Ca
NA,NA,NA,NA,NA,image-keyboard-response,105,302141,0.0-7.0-1.0-0.3,47,Study 47,Session 47,NA,1053,img/testing_events/Ca/Test_Ca_Event_21.jpg,e,response,e,NA,TRUE,Ca
NA,NA,NA,NA,NA,image-keyboard-response,106,305120,0.0-7.0-1.0-0.4,47,Study 47,Session 47,NA,2970,img/testing_events/Ca/Test_Ca_Event_9.jpg,e,response,e,NA,TRUE,Ca
NA,NA,NA,NA,NA,image-keyboard-response,107,309289,0.0-7.0-1.0-0.5,47,Study 47,Session 47,NA,4159,img/testing_events/Ca/Test_Ca_Event_1.jpg,c,response,e,NA,FALSE,Ca
NA,NA,NA,NA,NA,image-keyboard-response,108,311887,0.0-7.0-1.0-0.6,47,Study 47,Session 47,NA,2589,img/testing_events/Ca/Test_Ca_Event_14.jpg,u,response,u,NA,TRUE,Ca
NA,NA,NA,NA,NA,image-keyboard-response,109,313499,0.0-7.0-1.0-0.7,47,Study 47,Session 47,NA,1603,img/testing_events/Ca/Test_Ca_Event_19.jpg,c,response,c,NA,TRUE,Ca
NA,NA,NA,NA,NA,image-keyboard-response,110,315998,0.0-7.0-1.0-0.8,47,Study 47,Session 47,NA,2490,img/testing_events/Ca/Test_Ca_Event_12.jpg,n,response,n,NA,TRUE,Ca
NA,NA,NA,NA,NA,image-keyboard-response,111,317676,0.0-7.0-1.0-0.9,47,Study 47,Session 47,NA,1667,img/testing_events/Ca/Test_Ca_Event_4.jpg,n,response,n,NA,TRUE,Ca
NA,NA,NA,NA,NA,image-keyboard-response,112,321983,0.0-7.0-1.0-0.10,47,Study 47,Session 47,NA,4299,img/testing_events/Ca/Test_Ca_Event_18.jpg,n,response,u,NA,FALSE,Ca
NA,NA,NA,NA,NA,image-keyboard-response,113,323866,0.0-7.0-1.0-0.11,47,Study 47,Session 47,NA,1871,img/testing_events/Ca/Test_Ca_Event_7.jpg,c,response,c,NA,TRUE,Ca
NA,NA,NA,NA,NA,image-keyboard-response,114,327757,0.0-7.0-1.0-0.12,47,Study 47,Session 47,NA,3882,img/testing_events/Ca/Test_Ca_Event_8.jpg,n,response,n,NA,TRUE,Ca
NA,NA,NA,NA,NA,image-keyboard-response,115,328846,0.0-7.0-1.0-0.13,47,Study 47,Session 47,NA,1081,img/testing_events/Ca/Test_Ca_Event_11.jpg,c,response,c,NA,TRUE,Ca
NA,NA,NA,NA,NA,image-keyboard-response,116,329952,0.0-7.0-1.0-0.14,47,Study 47,Session 47,NA,1098,img/testing_events/Ca/Test_Ca_Event_15.jpg,c,response,c,NA,TRUE,Ca
NA,NA,NA,NA,NA,image-keyboard-response,117,333010,0.0-7.0-1.0-0.15,47,Study 47,Session 47,NA,3052,img/testing_events/Ca/Test_Ca_Event_24.jpg,n,response,n,NA,TRUE,Ca
NA,NA,NA,NA,NA,image-keyboard-response,118,334482,0.0-7.0-1.0-0.16,47,Study 47,Session 47,NA,1464,img/testing_events/Ca/Test_Ca_Event_5.jpg,e,response,e,NA,TRUE,Ca
NA,NA,NA,NA,NA,image-keyboard-response,119,337093,0.0-7.0-1.0-0.17,47,Study 47,Session 47,NA,2603,img/testing_events/Ca/Test_Ca_Event_10.jpg,u,response,u,NA,TRUE,Ca
NA,NA,NA,NA,NA,image-keyboard-response,120,339809,0.0-7.0-1.0-0.18,47,Study 47,Session 47,NA,2707,img/testing_events/Ca/Test_Ca_Event_20.jpg,n,response,n,NA,TRUE,Ca
NA,NA,NA,NA,NA,image-keyboard-response,121,343734,0.0-7.0-1.0-0.19,47,Study 47,Session 47,NA,3917,img/testing_events/Ca/Test_Ca_Event_13.jpg,e,response,e,NA,TRUE,Ca
NA,NA,NA,NA,NA,image-keyboard-response,122,344820,0.0-7.0-1.0-0.20,47,Study 47,Session 47,NA,1078,img/testing_events/Ca/Test_Ca_Event_17.jpg,e,response,e,NA,TRUE,Ca
NA,NA,NA,NA,NA,image-keyboard-response,123,346190,0.0-7.0-1.0-0.21,47,Study 47,Session 47,NA,1362,img/testing_events/Ca/Test_Ca_Event_22.jpg,u,response,u,NA,TRUE,Ca
NA,NA,NA,NA,NA,image-keyboard-response,124,347322,0.0-7.0-1.0-0.22,47,Study 47,Session 47,NA,1123,img/testing_events/Ca/Test_Ca_Event_6.jpg,u,response,u,NA,TRUE,Ca
NA,NA,NA,NA,NA,image-keyboard-response,125,348903,0.0-7.0-1.0-0.23,47,Study 47,Session 47,NA,1569,img/testing_events/Ca/Test_Ca_Event_3.jpg,c,response,c,NA,TRUE,Ca
NA,NA,NA,NA,NA,image-keyboard-response,126,350859,0.0-7.0-2.0-0.0,47,Study 47,Session 47,NA,1948,img/testing_events/Ba/Test_Ba_Event_20.jpg,u,response,u,NA,TRUE,Ba
NA,NA,NA,NA,NA,image-keyboard-response,127,355107,0.0-7.0-2.0-0.1,47,Study 47,Session 47,NA,4238,img/testing_events/Ba/Test_Ba_Event_12.jpg,u,response,u,NA,TRUE,Ba
NA,NA,NA,NA,NA,image-keyboard-response,128,356907,0.0-7.0-2.0-0.2,47,Study 47,Session 47,NA,1791,img/testing_events/Ba/Test_Ba_Event_16.jpg,u,response,u,NA,TRUE,Ba
NA,NA,NA,NA,NA,image-keyboard-response,129,358502,0.0-7.0-2.0-0.3,47,Study 47,Session 47,NA,1586,img/testing_events/Ba/Test_Ba_Event_7.jpg,e,response,e,NA,TRUE,Ba
NA,NA,NA,NA,NA,image-keyboard-response,130,360765,0.0-7.0-2.0-0.4,47,Study 47,Session 47,NA,2256,img/testing_events/Ba/Test_Ba_Event_22.jpg,n,response,n,NA,TRUE,Ba
NA,NA,NA,NA,NA,image-keyboard-response,131,363288,0.0-7.0-2.0-0.5,47,Study 47,Session 47,NA,2515,img/testing_events/Ba/Test_Ba_Event_10.jpg,n,response,n,NA,TRUE,Ba
NA,NA,NA,NA,NA,image-keyboard-response,132,364239,0.0-7.0-2.0-0.6,47,Study 47,Session 47,NA,941,img/testing_events/Ba/Test_Ba_Event_3.jpg,e,response,e,NA,TRUE,Ba
NA,NA,NA,NA,NA,image-keyboard-response,133,365490,0.0-7.0-2.0-0.7,47,Study 47,Session 47,NA,1242,img/testing_events/Ba/Test_Ba_Event_17.jpg,c,response,c,NA,TRUE,Ba
NA,NA,NA,NA,NA,image-keyboard-response,134,370298,0.0-7.0-2.0-0.8,47,Study 47,Session 47,NA,4799,img/testing_events/Ba/Test_Ba_Event_1.jpg,c,response,c,NA,TRUE,Ba
NA,NA,NA,NA,NA,image-keyboard-response,135,371666,0.0-7.0-2.0-0.9,47,Study 47,Session 47,NA,1358,img/testing_events/Ba/Test_Ba_Event_13.jpg,c,response,c,NA,TRUE,Ba
NA,NA,NA,NA,NA,image-keyboard-response,136,373275,0.0-7.0-2.0-0.10,47,Study 47,Session 47,NA,1600,img/testing_events/Ba/Test_Ba_Event_5.jpg,c,response,c,NA,TRUE,Ba
NA,NA,NA,NA,NA,image-keyboard-response,137,375376,0.0-7.0-2.0-0.11,47,Study 47,Session 47,NA,2093,img/testing_events/Ba/Test_Ba_Event_24.jpg,u,response,u,NA,TRUE,Ba
NA,NA,NA,NA,NA,image-keyboard-response,138,377993,0.0-7.0-2.0-0.12,47,Study 47,Session 47,NA,2606,img/testing_events/Ba/Test_Ba_Event_21.jpg,c,response,c,NA,TRUE,Ba
NA,NA,NA,NA,NA,image-keyboard-response,139,379447,0.0-7.0-2.0-0.13,47,Study 47,Session 47,NA,1446,img/testing_events/Ba/Test_Ba_Event_6.jpg,n,response,n,NA,TRUE,Ba
NA,NA,NA,NA,NA,image-keyboard-response,140,381687,0.0-7.0-2.0-0.14,47,Study 47,Session 47,NA,2233,img/testing_events/Ba/Test_Ba_Event_14.jpg,n,response,n,NA,TRUE,Ba
NA,NA,NA,NA,NA,image-keyboard-response,141,384047,0.0-7.0-2.0-0.15,47,Study 47,Session 47,NA,2351,img/testing_events/Ba/Test_Ba_Event_23.jpg,e,response,e,NA,TRUE,Ba
NA,NA,NA,NA,NA,image-keyboard-response,142,385051,0.0-7.0-2.0-0.16,47,Study 47,Session 47,NA,993,img/testing_events/Ba/Test_Ba_Event_11.jpg,e,response,e,NA,TRUE,Ba
NA,NA,NA,NA,NA,image-keyboard-response,143,386289,0.0-7.0-2.0-0.17,47,Study 47,Session 47,NA,1229,img/testing_events/Ba/Test_Ba_Event_2.jpg,n,response,n,NA,TRUE,Ba
NA,NA,NA,NA,NA,image-keyboard-response,144,387250,0.0-7.0-2.0-0.18,47,Study 47,Session 47,NA,950,img/testing_events/Ba/Test_Ba_Event_15.jpg,e,response,e,NA,TRUE,Ba
NA,NA,NA,NA,NA,image-keyboard-response,145,389267,0.0-7.0-2.0-0.19,47,Study 47,Session 47,NA,2006,img/testing_events/Ba/Test_Ba_Event_4.jpg,u,response,u,NA,TRUE,Ba
NA,NA,NA,NA,NA,image-keyboard-response,146,391750,0.0-7.0-2.0-0.20,47,Study 47,Session 47,NA,2475,img/testing_events/Ba/Test_Ba_Event_9.jpg,c,response,c,NA,TRUE,Ba
NA,NA,NA,NA,NA,image-keyboard-response,147,392804,0.0-7.0-2.0-0.21,47,Study 47,Session 47,NA,1046,img/testing_events/Ba/Test_Ba_Event_19.jpg,e,response,e,NA,TRUE,Ba
NA,NA,NA,NA,NA,image-keyboard-response,148,396234,0.0-7.0-2.0-0.22,47,Study 47,Session 47,NA,3421,img/testing_events/Ba/Test_Ba_Event_8.jpg,u,response,u,NA,TRUE,Ba
NA,NA,NA,NA,NA,image-keyboard-response,149,397431,0.0-7.0-2.0-0.23,47,Study 47,Session 47,NA,1187,img/testing_events/Ba/Test_Ba_Event_18.jpg,n,response,n,NA,TRUE,Ba
NA,NA,NA,NA,NA,image-keyboard-response,150,399811,0.0-7.0-3.0-0.0,47,Study 47,Session 47,NA,2369,img/testing_events/Ab/Test_Ab_Event_3.jpg,c,response,c,NA,TRUE,Ab
NA,NA,NA,NA,NA,image-keyboard-response,151,401660,0.0-7.0-3.0-0.1,47,Study 47,Session 47,NA,1841,img/testing_events/Ab/Test_Ab_Event_14.jpg,u,response,u,NA,TRUE,Ab
NA,NA,NA,NA,NA,image-keyboard-response,152,404595,0.0-7.0-3.0-0.2,47,Study 47,Session 47,NA,2927,img/testing_events/Ab/Test_Ab_Event_1.jpg,e,response,e,NA,TRUE,Ab
NA,NA,NA,NA,NA,image-keyboard-response,153,405566,0.0-7.0-3.0-0.3,47,Study 47,Session 47,NA,962,img/testing_events/Ab/Test_Ab_Event_24.jpg,n,response,n,NA,TRUE,Ab
NA,NA,NA,NA,NA,image-keyboard-response,154,406647,0.0-7.0-3.0-0.4,47,Study 47,Session 47,NA,1072,img/testing_events/Ab/Test_Ab_Event_17.jpg,e,response,e,NA,TRUE,Ab
NA,NA,NA,NA,NA,image-keyboard-response,155,407678,0.0-7.0-3.0-0.5,47,Study 47,Session 47,NA,1024,img/testing_events/Ab/Test_Ab_Event_18.jpg,u,response,u,NA,TRUE,Ab
NA,NA,NA,NA,NA,image-keyboard-response,156,408587,0.0-7.0-3.0-0.6,47,Study 47,Session 47,NA,900,img/testing_events/Ab/Test_Ab_Event_11.jpg,c,response,c,NA,TRUE,Ab
NA,NA,NA,NA,NA,image-keyboard-response,157,409834,0.0-7.0-3.0-0.7,47,Study 47,Session 47,NA,1238,img/testing_events/Ab/Test_Ab_Event_6.jpg,u,response,u,NA,TRUE,Ab
NA,NA,NA,NA,NA,image-keyboard-response,158,411348,0.0-7.0-3.0-0.8,47,Study 47,Session 47,NA,1506,img/testing_events/Ab/Test_Ab_Event_7.jpg,c,response,c,NA,TRUE,Ab
NA,NA,NA,NA,NA,image-keyboard-response,159,412581,0.0-7.0-3.0-0.9,47,Study 47,Session 47,NA,1223,img/testing_events/Ab/Test_Ab_Event_4.jpg,n,response,n,NA,TRUE,Ab
NA,NA,NA,NA,NA,image-keyboard-response,160,413666,0.0-7.0-3.0-0.10,47,Study 47,Session 47,NA,1077,img/testing_events/Ab/Test_Ab_Event_20.jpg,e,response,n,NA,FALSE,Ab
NA,NA,NA,NA,NA,image-keyboard-response,161,415538,0.0-7.0-3.0-0.11,47,Study 47,Session 47,NA,1866,img/testing_events/Ab/Test_Ab_Event_13.jpg,e,response,e,NA,TRUE,Ab
NA,NA,NA,NA,NA,image-keyboard-response,162,416805,0.0-7.0-3.0-0.12,47,Study 47,Session 47,NA,1259,img/testing_events/Ab/Test_Ab_Event_2.jpg,u,response,u,NA,TRUE,Ab
NA,NA,NA,NA,NA,image-keyboard-response,163,418284,0.0-7.0-3.0-0.13,47,Study 47,Session 47,NA,1470,img/testing_events/Ab/Test_Ab_Event_8.jpg,n,response,n,NA,TRUE,Ab
NA,NA,NA,NA,NA,image-keyboard-response,164,419385,0.0-7.0-3.0-0.14,47,Study 47,Session 47,NA,1092,img/testing_events/Ab/Test_Ab_Event_5.jpg,e,response,e,NA,TRUE,Ab
NA,NA,NA,NA,NA,image-keyboard-response,165,421853,0.0-7.0-3.0-0.15,47,Study 47,Session 47,NA,2460,img/testing_events/Ab/Test_Ab_Event_12.jpg,n,response,n,NA,TRUE,Ab
NA,NA,NA,NA,NA,image-keyboard-response,166,423089,0.0-7.0-3.0-0.16,47,Study 47,Session 47,NA,1229,img/testing_events/Ab/Test_Ab_Event_22.jpg,u,response,u,NA,TRUE,Ab
NA,NA,NA,NA,NA,image-keyboard-response,167,424044,0.0-7.0-3.0-0.17,47,Study 47,Session 47,NA,945,img/testing_events/Ab/Test_Ab_Event_23.jpg,c,response,c,NA,TRUE,Ab
NA,NA,NA,NA,NA,image-keyboard-response,168,425136,0.0-7.0-3.0-0.18,47,Study 47,Session 47,NA,1080,img/testing_events/Ab/Test_Ab_Event_21.jpg,e,response,e,NA,TRUE,Ab
NA,NA,NA,NA,NA,image-keyboard-response,169,426352,0.0-7.0-3.0-0.19,47,Study 47,Session 47,NA,1209,img/testing_events/Ab/Test_Ab_Event_15.jpg,c,response,c,NA,TRUE,Ab
NA,NA,NA,NA,NA,image-keyboard-response,170,427736,0.0-7.0-3.0-0.20,47,Study 47,Session 47,NA,1375,img/testing_events/Ab/Test_Ab_Event_9.jpg,e,response,e,NA,TRUE,Ab
NA,NA,NA,NA,NA,image-keyboard-response,171,430657,0.0-7.0-3.0-0.21,47,Study 47,Session 47,NA,2913,img/testing_events/Ab/Test_Ab_Event_10.jpg,u,response,u,NA,TRUE,Ab
NA,NA,NA,NA,NA,image-keyboard-response,172,432351,0.0-7.0-3.0-0.22,47,Study 47,Session 47,NA,1685,img/testing_events/Ab/Test_Ab_Event_16.jpg,n,response,n,NA,TRUE,Ab
NA,NA,NA,NA,NA,image-keyboard-response,173,433341,0.0-7.0-3.0-0.23,47,Study 47,Session 47,NA,981,img/testing_events/Ab/Test_Ab_Event_19.jpg,c,response,c,NA,TRUE,Ab
NA,NA,NA,NA,NA,image-keyboard-response,174,438330,0.0-7.0-4.0-0.0,47,Study 47,Session 47,NA,4979,img/testing_events/Cb/Test_Cb_Event_18.jpg,c,response,c,NA,TRUE,Cb
NA,NA,NA,NA,NA,image-keyboard-response,175,440809,0.0-7.0-4.0-0.1,47,Study 47,Session 47,NA,2471,img/testing_events/Cb/Test_Cb_Event_4.jpg,e,response,e,NA,TRUE,Cb
NA,NA,NA,NA,NA,image-keyboard-response,176,441783,0.0-7.0-4.0-0.2,47,Study 47,Session 47,NA,965,img/testing_events/Cb/Test_Cb_Event_20.jpg,e,response,e,NA,TRUE,Cb
NA,NA,NA,NA,NA,image-keyboard-response,177,445940,0.0-7.0-4.0-0.3,47,Study 47,Session 47,NA,4149,img/testing_events/Cb/Test_Cb_Event_12.jpg,c,response,e,NA,FALSE,Cb
NA,NA,NA,NA,NA,image-keyboard-response,178,446917,0.0-7.0-4.0-0.4,47,Study 47,Session 47,NA,969,img/testing_events/Cb/Test_Cb_Event_23.jpg,n,response,n,NA,TRUE,Cb
NA,NA,NA,NA,NA,image-keyboard-response,179,450184,0.0-7.0-4.0-0.5,47,Study 47,Session 47,NA,3259,img/testing_events/Cb/Test_Cb_Event_1.jpg,u,response,u,NA,TRUE,Cb
NA,NA,NA,NA,NA,image-keyboard-response,180,452728,0.0-7.0-4.0-0.6,47,Study 47,Session 47,NA,2535,img/testing_events/Cb/Test_Cb_Event_24.jpg,e,response,e,NA,TRUE,Cb
NA,NA,NA,NA,NA,image-keyboard-response,181,453745,0.0-7.0-4.0-0.7,47,Study 47,Session 47,NA,1010,img/testing_events/Cb/Test_Cb_Event_5.jpg,u,response,u,NA,TRUE,Cb
NA,NA,NA,NA,NA,image-keyboard-response,182,455313,0.0-7.0-4.0-0.8,47,Study 47,Session 47,NA,1561,img/testing_events/Cb/Test_Cb_Event_14.jpg,c,response,c,NA,TRUE,Cb
NA,NA,NA,NA,NA,image-keyboard-response,183,456494,0.0-7.0-4.0-0.9,47,Study 47,Session 47,NA,1173,img/testing_events/Cb/Test_Cb_Event_15.jpg,n,response,n,NA,TRUE,Cb
NA,NA,NA,NA,NA,image-keyboard-response,184,457462,0.0-7.0-4.0-0.10,47,Study 47,Session 47,NA,960,img/testing_events/Cb/Test_Cb_Event_11.jpg,n,response,n,NA,TRUE,Cb
NA,NA,NA,NA,NA,image-keyboard-response,185,458807,0.0-7.0-4.0-0.11,47,Study 47,Session 47,NA,1337,img/testing_events/Cb/Test_Cb_Event_22.jpg,c,response,c,NA,TRUE,Cb
NA,NA,NA,NA,NA,image-keyboard-response,186,460128,0.0-7.0-4.0-0.12,47,Study 47,Session 47,NA,1310,img/testing_events/Cb/Test_Cb_Event_3.jpg,n,response,n,NA,TRUE,Cb
NA,NA,NA,NA,NA,image-keyboard-response,187,461578,0.0-7.0-4.0-0.13,47,Study 47,Session 47,NA,1441,img/testing_events/Cb/Test_Cb_Event_8.jpg,e,response,e,NA,TRUE,Cb
NA,NA,NA,NA,NA,image-keyboard-response,188,462613,0.0-7.0-4.0-0.14,47,Study 47,Session 47,NA,1028,img/testing_events/Cb/Test_Cb_Event_6.jpg,c,response,c,NA,TRUE,Cb
NA,NA,NA,NA,NA,image-keyboard-response,189,464087,0.0-7.0-4.0-0.15,47,Study 47,Session 47,NA,1466,img/testing_events/Cb/Test_Cb_Event_9.jpg,u,response,u,NA,TRUE,Cb
NA,NA,NA,NA,NA,image-keyboard-response,190,465485,0.0-7.0-4.0-0.16,47,Study 47,Session 47,NA,1388,img/testing_events/Cb/Test_Cb_Event_13.jpg,u,response,u,NA,TRUE,Cb
NA,NA,NA,NA,NA,image-keyboard-response,191,469200,0.0-7.0-4.0-0.17,47,Study 47,Session 47,NA,3707,img/testing_events/Cb/Test_Cb_Event_10.jpg,u,response,c,NA,FALSE,Cb
NA,NA,NA,NA,NA,image-keyboard-response,192,471564,0.0-7.0-4.0-0.18,47,Study 47,Session 47,NA,2354,img/testing_events/Cb/Test_Cb_Event_21.jpg,u,response,u,NA,TRUE,Cb
NA,NA,NA,NA,NA,image-keyboard-response,193,472507,0.0-7.0-4.0-0.19,47,Study 47,Session 47,NA,935,img/testing_events/Cb/Test_Cb_Event_19.jpg,n,response,n,NA,TRUE,Cb
NA,NA,NA,NA,NA,image-keyboard-response,194,473755,0.0-7.0-4.0-0.20,47,Study 47,Session 47,NA,1240,img/testing_events/Cb/Test_Cb_Event_2.jpg,c,response,c,NA,TRUE,Cb
NA,NA,NA,NA,NA,image-keyboard-response,195,474710,0.0-7.0-4.0-0.21,47,Study 47,Session 47,NA,946,img/testing_events/Cb/Test_Cb_Event_17.jpg,u,response,u,NA,TRUE,Cb
NA,NA,NA,NA,NA,image-keyboard-response,196,476008,0.0-7.0-4.0-0.22,47,Study 47,Session 47,NA,1290,img/testing_events/Cb/Test_Cb_Event_7.jpg,n,response,n,NA,TRUE,Cb
NA,NA,NA,NA,NA,image-keyboard-response,197,477183,0.0-7.0-4.0-0.23,47,Study 47,Session 47,NA,1167,img/testing_events/Cb/Test_Cb_Event_16.jpg,e,response,e,NA,TRUE,Cb
NA,NA,NA,NA,NA,image-keyboard-response,198,478064,0.0-7.0-5.0-0.0,47,Study 47,Session 47,NA,868,img/testing_events/Bc/Test_Bc_Event_18.jpg,e,response,e,NA,TRUE,Bc
NA,NA,NA,NA,NA,image-keyboard-response,199,481615,0.0-7.0-5.0-0.1,47,Study 47,Session 47,NA,3543,img/testing_events/Bc/Test_Bc_Event_22.jpg,e,response,e,NA,TRUE,Bc
NA,NA,NA,NA,NA,image-keyboard-response,200,482610,0.0-7.0-5.0-0.2,47,Study 47,Session 47,NA,989,img/testing_events/Bc/Test_Bc_Event_20.jpg,c,response,c,NA,TRUE,Bc
NA,NA,NA,NA,NA,image-keyboard-response,201,484302,0.0-7.0-5.0-0.3,47,Study 47,Session 47,NA,1683,img/testing_events/Bc/Test_Bc_Event_23.jpg,u,response,u,NA,TRUE,Bc
NA,NA,NA,NA,NA,image-keyboard-response,202,485770,0.0-7.0-5.0-0.4,47,Study 47,Session 47,NA,1461,img/testing_events/Bc/Test_Bc_Event_24.jpg,c,response,c,NA,TRUE,Bc
NA,NA,NA,NA,NA,image-keyboard-response,203,487264,0.0-7.0-5.0-0.5,47,Study 47,Session 47,NA,1485,img/testing_events/Bc/Test_Bc_Event_17.jpg,n,response,n,NA,TRUE,Bc
NA,NA,NA,NA,NA,image-keyboard-response,204,488426,0.0-7.0-5.0-0.6,47,Study 47,Session 47,NA,1153,img/testing_events/Bc/Test_Bc_Event_21.jpg,n,response,n,NA,TRUE,Bc
NA,NA,NA,NA,NA,image-keyboard-response,205,489472,0.0-7.0-5.0-0.7,47,Study 47,Session 47,NA,1038,img/testing_events/Bc/Test_Bc_Event_14.jpg,e,response,e,NA,TRUE,Bc
NA,NA,NA,NA,NA,image-keyboard-response,206,492247,0.0-7.0-5.0-0.8,47,Study 47,Session 47,NA,2767,img/testing_events/Bc/Test_Bc_Event_12.jpg,c,response,c,NA,TRUE,Bc
NA,NA,NA,NA,NA,image-keyboard-response,207,493473,0.0-7.0-5.0-0.9,47,Study 47,Session 47,NA,1218,img/testing_events/Bc/Test_Bc_Event_6.jpg,e,response,e,NA,TRUE,Bc
NA,NA,NA,NA,NA,image-keyboard-response,208,496892,0.0-7.0-5.0-0.10,47,Study 47,Session 47,NA,3409,img/testing_events/Bc/Test_Bc_Event_10.jpg,e,response,e,NA,TRUE,Bc
NA,NA,NA,NA,NA,image-keyboard-response,209,498064,0.0-7.0-5.0-0.11,47,Study 47,Session 47,NA,1164,img/testing_events/Bc/Test_Bc_Event_9.jpg,n,response,n,NA,TRUE,Bc
NA,NA,NA,NA,NA,image-keyboard-response,210,499386,0.0-7.0-5.0-0.12,47,Study 47,Session 47,NA,1310,img/testing_events/Bc/Test_Bc_Event_2.jpg,e,response,e,NA,TRUE,Bc
NA,NA,NA,NA,NA,image-keyboard-response,211,502454,0.0-7.0-5.0-0.13,47,Study 47,Session 47,NA,3059,img/testing_events/Bc/Test_Bc_Event_7.jpg,u,response,u,NA,TRUE,Bc
NA,NA,NA,NA,NA,image-keyboard-response,212,504012,0.0-7.0-5.0-0.14,47,Study 47,Session 47,NA,1551,img/testing_events/Bc/Test_Bc_Event_8.jpg,c,response,c,NA,TRUE,Bc
NA,NA,NA,NA,NA,image-keyboard-response,213,507380,0.0-7.0-5.0-0.15,47,Study 47,Session 47,NA,3360,img/testing_events/Bc/Test_Bc_Event_1.jpg,n,response,n,NA,TRUE,Bc
NA,NA,NA,NA,NA,image-keyboard-response,214,507636,0.0-7.0-5.0-0.16,47,Study 47,Session 47,NA,247,img/testing_events/Bc/Test_Bc_Event_19.jpg,n,response,u,NA,FALSE,Bc
NA,NA,NA,NA,NA,image-keyboard-response,215,510145,0.0-7.0-5.0-0.17,47,Study 47,Session 47,NA,2500,img/testing_events/Bc/Test_Bc_Event_5.jpg,n,response,n,NA,TRUE,Bc
NA,NA,NA,NA,NA,image-keyboard-response,216,512904,0.0-7.0-5.0-0.18,47,Study 47,Session 47,NA,2753,img/testing_events/Bc/Test_Bc_Event_11.jpg,u,response,u,NA,TRUE,Bc
NA,NA,NA,NA,NA,image-keyboard-response,217,514650,0.0-7.0-5.0-0.19,47,Study 47,Session 47,NA,1739,img/testing_events/Bc/Test_Bc_Event_16.jpg,c,response,c,NA,TRUE,Bc
NA,NA,NA,NA,NA,image-keyboard-response,218,515766,0.0-7.0-5.0-0.20,47,Study 47,Session 47,NA,1106,img/testing_events/Bc/Test_Bc_Event_3.jpg,u,response,u,NA,TRUE,Bc
NA,NA,NA,NA,NA,image-keyboard-response,219,517859,0.0-7.0-5.0-0.21,47,Study 47,Session 47,NA,2084,img/testing_events/Bc/Test_Bc_Event_13.jpg,n,response,n,NA,TRUE,Bc
NA,NA,NA,NA,NA,image-keyboard-response,220,519551,0.0-7.0-5.0-0.22,47,Study 47,Session 47,NA,1685,img/testing_events/Bc/Test_Bc_Event_4.jpg,c,response,c,NA,TRUE,Bc
NA,NA,NA,NA,NA,image-keyboard-response,221,521228,0.0-7.0-5.0-0.23,47,Study 47,Session 47,NA,1669,img/testing_events/Bc/Test_Bc_Event_15.jpg,u,response,u,NA,TRUE,Bc
NA,NA,NA,NA,NA,survey-text,222,543933,0.0-8.0,47,Study 47,Session 47,NA,22698,NA,"{""Q0"":""No I did not."",""Q1"":""None."",""Q2"":""Nothing else""}",NA,NA,NA,NA,NA
NA,NA,NA,NA,NA,survey-html-form,223,562126,0.0-9.0,47,Study 47,Session 47,NA,18191,NA,"{""Gender"":""Male"",""Age"":""20"",""ColorBlind"":""No"",""Education"":""Associates degree"",""Income"":""$125,000-$149,999"",""Race"":""Asian/Pacific Islander"",""Fluent"":""Yes"",""AgeEnglish"":""5"",""Country"":""USA""}",NA,NA,NA,NA,NA
TRUE,NA,NA,NA,NA,fullscreen,224,562128,0.0-10.0,47,Study 47,Session 47,NA,NA,NA,NA,NA,NA,NA,NA,NA
