success,timeout,failed_images,failed_audio,failed_video,trial_type,trial_index,time_elapsed,internal_node_id,subject_id,study_id,session_id,view_history,rt,stimulus,response,task,correct_response,attention_duration,correct,retrieval_group
TRUE,FALSE,[],[],[],preload,0,2212,0.0-0.0,48,Study 48,Session 48,NA,NA,NA,NA,NA,NA,NA,NA,NA
TRUE,NA,NA,NA,NA,fullscreen,1,4795,0.0-1.0,48,Study 48,Session 48,NA,NA,NA,NA,NA,NA,NA,NA,NA
NA,NA,NA,NA,NA,instructions,2,13133,0.0-2.0,48,Study 48,Session 48,"[{""page_index"":0,""viewing_time"":8336}]",8337,NA,NA,NA,NA,NA,NA,NA
NA,NA,NA,NA,NA,html-keyboard-response,3,35559,0.0-3.0,48,Study 48,Session 48,NA,22424,"Welcome to the experiment. <br /><br />This experiment will take about 20 minutes. Please complete all in one sitting. <br /><br />For this study, <strong>please use</strong> a laptop or desktop computer (not a mobile phone or tablet). Also, please use either <u>Chrome or Firefox</u>. <br /><br />Once you begin, <strong>DO NOT</strong> refresh the browser, as the experiment will reset and you will lose your progress. <br /><br />Press the <strong class=""upperline"">B</strong> key on your keyboard to begin.",b,NA,NA,NA,NA,NA
NA,NA,NA,NA,NA,instructions,4,54059,0.0-4.0,48,Study 48,Session 48,"[{""page_index"":0,""viewing_time"":5848},{""page_index"":1,""viewing_time"":9513},{""page_index"":2,""viewing_time"":2136}]",17497,NA,NA,NA,NA,NA,NA,NA
NA,NA,NA,NA,NA,html-keyboard-response,5,57070,0.0-5.0-0.0,48,Study 48,Session 48,NA,null,"<div style=""font-size:60px;"">+</div>",null,fixation,NA,NA,NA,NA
NA,NA,NA,NA,NA,image-keyboard-response,6,63073,0.0-5.0-1.0,48,Study 48,Session 48,NA,null,img/encoding_events/Event_2.jpg,null,NA,NA,NA,NA,NA
NA,NA,NA,NA,NA,html-keyboard-response,7,63075,0.0-5.0-2.0,48,Study 48,Session 48,NA,null,Please press the <strong><u>s</u></strong> key to continue,null,response,s,0,FALSE,NA
NA,NA,NA,NA,NA,html-keyboard-response,8,63577,0.0-5.0-0.1,48,Study 48,Session 48,NA,null,"<div style=""font-size:60px;"">+</div>",null,fixation,NA,NA,NA,NA
NA,NA,NA,NA,NA,image-keyboard-response,9,69584,0.0-5.0-1.1,48,Study 48,Session 48,NA,null,img/encoding_events/Event_19.jpg,null,NA,NA,NA,NA,NA
NA,NA,NA,NA,NA,html-keyboard-response,10,69589,0.0-5.0-2.1,48,Study 48,Session 48,NA,null,Please press the <strong><u>k</u></strong> key to continue,null,response,k,0,FALSE,NA
NA,NA,NA,NA,NA,html-keyboard-response,11,70095,0.0-5.0-0.2,48,Study 48,Session 48,NA,null,"<div style=""font-size:60px;"">+</div>",null,fixation,NA,NA,NA,NA
NA,NA,NA,NA,NA,image-keyboard-response,12,76105,0.0-5.0-1.2,48,Study 48,Session 48,NA,null,img/encoding_events/Event_5.jpg,null,NA,NA,NA,NA,NA
NA,NA,NA,NA,NA,html-keyboard-response,13,76111,0.0-5.0-2.2,48,Study 48,Session 48,NA,null,Please press the <strong><u>d</u></strong> key to continue,null,response,d,0,FALSE,NA
NA,NA,NA,NA,NA,html-keyboard-response,14,76615,0.0-5.0-0.3,48,Study 48,Session 48,NA,null,"<div style=""font-size:60px;"">+</div>",null,fixation,NA,NA,NA,NA
NA,NA,NA,NA,NA,image-keyboard-response,15,82625,0.0-5.0-1.3,48,Study 48,Session 48,NA,null,img/encoding_events/Event_14.jpg,null,NA,NA,NA,NA,NA
NA,NA,NA,NA,NA,html-keyboard-response,16,84138,0.0-5.0-2.3,48,Study 48,Session 48,NA,1512,Please press the <strong><u>a</u></strong> key to continue,a,response,a,6000,TRUE,NA
NA,NA,NA,NA,NA,html-keyboard-response,17,84650,0.0-5.0-0.4,48,Study 48,Session 48,NA,null,"<div style=""font-size:60px;"">+</div>",null,fixation,NA,NA,NA,NA
NA,NA,NA,NA,NA,image-keyboard-response,18,90669,0.0-5.0-1.4,48,Study 48,Session 48,NA,null,img/encoding_events/Event_18.jpg,null,NA,NA,NA,NA,NA
NA,NA,NA,NA,NA,html-keyboard-response,19,90673,0.0-5.0-2.4,48,Study 48,Session 48,NA,null,Please press the <strong><u>a</u></strong> key to continue,null,response,a,0,FALSE,NA
NA,NA,NA,NA,NA,html-keyboard-response,20,91178,0.0-5.0-0.5,48,Study 48,Session 48,NA,null,"<div style=""font-size:60px;"">+</div>",null,fixation,NA,NA,NA,NA
NA,NA,NA,NA,NA,image-keyboard-response,21,97190,0.0-5.0-1.5,48,Study 48,Session 48,NA,null,img/encoding_events/Event_11.jpg,null,NA,NA,NA,NA,NA
NA,NA,NA,NA,NA,html-keyboard-response,22,97195,0.0-5.0-2.5,48,Study 48,Session 48,NA,null,Please press the <strong><u>j</u></strong> key to continue,null,response,j,0,FALSE,NA
NA,NA,NA,NA,NA,html-keyboard-response,23,97705,0.0-5.0-0.6,48,Study 48,Session 48,NA,null,"<div style=""font-size:60px;"">+</div>",null,fixation,NA,NA,NA,NA
NA,NA,NA,NA,NA,image-keyboard-response,24,103723,0.0-5.0-1.6,48,Study 48,Session 48,NA,null,img/encoding_events/Event_24.jpg,null,NA,NA,NA,NA,NA
NA,NA,NA,NA,NA,html-keyboard-response,25,103729,0.0-5.0-2.6,48,Study 48,Session 48,NA,null,Please press the <strong><u>d</u></strong> key to continue,null,response,d,0,FALSE,NA
NA,NA,NA,NA,NA,html-keyboard-response,26,104246,0.0-5.0-0.7,48,Study 48,Session 48,NA,null,"<div style=""font-size:60px;"">+</div>",null,fixation,NA,NA,NA,NA
NA,NA,NA,NA,NA,image-keyboard-response,27,110276,0.0-5.0-1.7,48,Study 48,Session 48,NA,null,img/encoding_events/Event_20.jpg,null,NA,NA,NA,NA,NA
NA,NA,NA,NA,NA,html-keyboard-response,28,112037,0.0-5.0-2.7,48,Study 48,Session 48,NA,1759,Please press the <strong><u>s</u></strong> key to continue,s,response,s,6000,TRUE,NA
NA,NA,NA,NA,NA,html-keyboard-response,29,112544,0.0-5.0-0.8,48,Study 48,Session 48,NA,null,"<div style=""font-size:60px;"">+</div>",null,fixation,NA,NA,NA,NA
NA,NA,NA,NA,NA,image-keyboard-response,30,118550,0.0-5.0-1.8,48,Study 48,Session 48,NA,null,img/encoding_events/Event_1.jpg,null,NA,NA,NA,NA,NA
NA,NA,NA,NA,NA,html-keyboard-response,31,118554,0.0-5.0-2.8,48,Study 48,Session 48,NA,null,Please press the <strong><u>j</u></strong> key to continue,null,response,j,0,FALSE,NA
NA,NA,NA,NA,NA,html-keyboard-response,32,119065,0.0-5.0-0.9,48,Study 48,Session 48,NA,null,"<div style=""font-size:60px;"">+</div>",null,fixation,NA,NA,NA,NA
NA,NA,NA,NA,NA,image-keyboard-response,33,125074,0.0-5.0-1.9,48,Study 48,Session 48,NA,null,img/encoding_events/Event_23.jpg,null,NA,NA,NA,NA,NA
NA,NA,NA,NA,NA,html-keyboard-response,34,125080,0.0-5.0-2.9,48,Study 48,Session 48,NA,null,Please press the <strong><u>d</u></strong> key to continue,null,response,d,0,FALSE,NA
NA,NA,NA,NA,NA,html-keyboard-response,35,125587,0.0-5.0-0.10,48,Study 48,Session 48,NA,null,"<div style=""font-size:60px;"">+</div>",null,fixation,NA,NA,NA,NA
NA,NA,NA,NA,NA,image-keyboard-response,36,131594,0.0-5.0-1.10,48,Study 48,Session 48,NA,null,img/encoding_events/Event_17.jpg,null,NA,NA,NA,NA,NA
NA,NA,NA,NA,NA,html-keyboard-response,37,131599,0.0-5.0-2.10,48,Study 48,Session 48,NA,null,Please press the <strong><u>d</u></strong> key to continue,null,response,d,0,FALSE,NA
NA,NA,NA,NA,NA,html-keyboard-response,38,132107,0.0-5.0-0.11,48,Study 48,Session 48,NA,null,"<div style=""font-size:60px;"">+</div>",null,fixation,NA,NA,NA,NA
NA,NA,NA,NA,NA,image-keyboard-response,39,138110,0.0-5.0-1.11,48,Study 48,Session 48,NA,null,img/encoding_events/Event_9.jpg,null,NA,NA,NA,NA,NA
NA,NA,NA,NA,NA,html-keyboard-response,40,139605,0.0-5.0-2.11,48,Study 48,Session 48,NA,1495,Please press the <strong><u>j</u></strong> key to continue,j,response,j,6000,TRUE,NA
NA,NA,NA,NA,NA,html-keyboard-response,41,140113,0.0-5.0-0.12,48,Study 48,Session 48,NA,null,"<div style=""font-size:60px;"">+</div>",null,fixation,NA,NA,NA,NA
NA,NA,NA,NA,NA,image-keyboard-response,42,146124,0.0-5.0-1.12,48,Study 48,Session 48,NA,null,img/encoding_events/Event_6.jpg,null,NA,NA,NA,NA,NA
NA,NA,NA,NA,NA,html-keyboard-response,43,146129,0.0-5.0-2.12,48,Study 48,Session 48,NA,null,Please press the <strong><u>d</u></strong> key to continue,null,response,d,0,FALSE,NA
NA,NA,NA,NA,NA,html-keyboard-response,44,146643,0.0-5.0-0.13,48,Study 48,Session 48,NA,null,"<div style=""font-size:60px;"">+</div>",null,fixation,NA,NA,NA,NA
NA,NA,NA,NA,NA,image-keyboard-response,45,152646,0.0-5.0-1.13,48,Study 48,Session 48,NA,null,img/encoding_events/Event_22.jpg,null,NA,NA,NA,NA,NA
NA,NA,NA,NA,NA,html-keyboard-response,46,152654,0.0-5.0-2.13,48,Study 48,Session 48,NA,null,Please press the <strong><u>s</u></strong> key to continue,null,response,s,0,FALSE,NA
NA,NA,NA,NA,NA,html-keyboard-response,47,153169,0.0-5.0-0.14,48,Study 48,Session 48,NA,null,"<div style=""font-size:60px;"">+</div>",null,fixation,NA,NA,NA,NA
NA,NA,NA,NA,NA,image-keyboard-response,48,159195,0.0-5.0-1.14,48,Study 48,Session 48,NA,null,img/encoding_events/Event_4.jpg,null,NA,NA,NA,NA,NA
NA,NA,NA,NA,NA,html-keyboard-response,49,159203,0.0-5.0-2.14,48,Study 48,Session 48,NA,null,Please press the <strong><u>j</u></strong> key to continue,null,response,j,0,FALSE,NA
NA,NA,NA,NA,NA,html-keyboard-response,50,159711,0.0-5.0-0.15,48,Study 48,Session 48,NA,null,"<div style=""font-size:60px;"">+</div>",null,fixation,NA,NA,NA,NA
NA,NA,NA,NA,NA,image-keyboard-response,51,165714,0.0-5.0-1.15,48,Study 48,Session 48,NA,null,img/encoding_events/Event_3.jpg,null,NA,NA,NA,NA,NA
NA,NA,NA,NA,NA,html-keyboard-response,52,167489,0.0-5.0-2.15,48,Study 48,Session 48,NA,1774,Please press the <strong><u>j</u></strong> key to continue,j,response,j,6000,TRUE,NA
NA,NA,NA,NA,NA,html-keyboard-response,53,168001,0.0-5.0-0.16,48,Study 48,Session 48,NA,null,"<div style=""font-size:60px;"">+</div>",null,fixation,NA,NA,NA,NA
NA,NA,NA,NA,NA,image-keyboard-response,54,174018,0.0-5.0-1.16,48,Study 48,Session 48,NA,null,img/encoding_events/Event_16.jpg,null,NA,NA,NA,NA,NA
NA,NA,NA,NA,NA,html-keyboard-response,55,174020,0.0-5.0-2.16,48,Study 48,Session 48,NA,null,Please press the <strong><u>f</u></strong> key to continue,null,response,f,0,FALSE,NA
NA,NA,NA,NA,NA,html-keyboard-response,56,174526,0.0-5.0-0.17,48,Study 48,Session 48,NA,null,"<div style=""font-size:60px;"">+</div>",null,fixation,NA,NA,NA,NA
NA,NA,NA,NA,NA,image-keyboard-response,57,180542,0.0-5.0-1.17,48,Study 48,Session 48,NA,null,img/encoding_events/Event_10.jpg,null,NA,NA,NA,NA,NA
NA,NA,NA,NA,NA,html-keyboard-response,58,180549,0.0-5.0-2.17,48,Study 48,Session 48,NA,null,Please press the <strong><u>s</u></strong> key to continue,null,response,s,0,FALSE,NA
NA,NA,NA,NA,NA,html-keyboard-response,59,181066,0.0-5.0-0.18,48,Study 48,Session 48,NA,null,"<div style=""font-size:60px;"">+</div>",null,fixation,NA,NA,NA,NA
NA,NA,NA,NA,NA,image-keyboard-response,60,187072,0.0-5.0-1.18,48,Study 48,Session 48,NA,null,img/encoding_events/Event_8.jpg,null,NA,NA,NA,NA,NA
NA,NA,NA,NA,NA,html-keyboard-response,61,187080,0.0-5.0-2.18,48,Study 48,Session 48,NA,null,Please press the <strong><u>s</u></strong> key to continue,null,response,s,0,FALSE,NA
NA,NA,NA,NA,NA,html-keyboard-response,62,187595,0.0-5.0-0.19,48,Study 48,Session 48,NA,null,"<div style=""font-size:60px;"">+</div>",null,fixation,NA,NA,NA,NA
NA,NA,NA,NA,NA,image-keyboard-response,63,193598,0.0-5.0-1.19,48,Study 48,Session 48,NA,null,img/encoding_events/Event_12.jpg,null,NA,NA,NA,NA,NA
NA,NA,NA,NA,NA,html-keyboard-response,64,195233,0.0-5.0-2.19,48,Study 48,Session 48,NA,1634,Please press the <strong><u>a</u></strong> key to continue,a,response,a,6000,TRUE,NA
NA,NA,NA,NA,NA,html-keyboard-response,65,195744,0.0-5.0-0.20,48,Study 48,Session 48,NA,null,"<div style=""font-size:60px;"">+</div>",null,fixation,NA,NA,NA,NA
NA,NA,NA,NA,NA,image-keyboard-response,66,201746,0.0-5.0-1.20,48,Study 48,Session 48,NA,null,img/encoding_events/Event_21.jpg,null,NA,NA,NA,NA,NA
NA,NA,NA,NA,NA,html-keyboard-response,67,201749,0.0-5.0-2.20,48,Study 48,Session 48,NA,null,Please press the <strong><u>k</u></strong> key to continue,null,response,k,0,FALSE,NA
NA,NA,NA,NA,NA,html-keyboard-response,68,202262,0.0-5.0-0.21,48,Study 48,Session 48,NA,null,"<div style=""font-size:60px;"">+</div>",null,fixation,NA,NA,NA,NA
NA,NA,NA,NA,NA,image-keyboard-response,69,208277,0.0-5.0-1.21,48,Study 48,Session 48,NA,null,img/encoding_events/Event_7.jpg,null,NA,NA,NA,NA,NA
NA,NA,NA,NA,NA,html-keyboard-response,70,208282,0.0-5.0-2.21,48,Study 48,Session 48,NA,null,Please press the <strong><u>d</u></strong> key to continue,null,response,d,0,FALSE,NA
NA,NA,NA,NA,NA,html-keyboard-response,71,208791,0.0-5.0-0.22,48,Study 48,Session 48,NA,null,"<div style=""font-size:60px;"">+</div>",null,fixation,NA,NA,NA,NA
NA,NA,NA,NA,NA,image-keyboard-response,72,214807,0.0-5.0-1.22,48,Study 48,Session 48,NA,null,img/encoding_events/Event_13.jpg,null,NA,NA,NA,NA,NA
NA,NA,NA,NA,NA,html-keyboard-response,73,214813,0.0-5.0-2.22,48,Study 48,Session 48,NA,null,Please press the <strong><u>f</u></strong> key to continue,null,response,f,0,FALSE,NA
NA,NA,NA,NA,NA,html-keyboard-response,74,215325,0.0-5.0-0.23,48,Study 48,Session 48,NA,null,"<div style=""font-size:60px;"">+</div>",null,fixation,NA,NA,NA,NA
NA,NA,NA,NA,NA,image-keyboard-response,75,221338,0.0-5.0-1.23,48,Study 48,Session 48,NA,null,img/encoding_events/Event_15.jpg,null,NA,NA,NA,NA,NA
NA,NA,NA,NA,NA,html-keyboard-response,76,222738,0.0-5.0-2.23,48,Study 48,Session 48,NA,1400,Please press the <strong><u>s</u></strong> key to continue,s,response,s,6000,TRUE,NA
NA,NA,NA,NA,NA,instructions,77,262265,0.0-6.0,48,Study 48,Session 48,"[{""page_index"":0,""viewing_time"":1982},{""page_index"":1,""viewing_time"":7699},{""page_index"":2,""viewing_time"":6370},{""page_index"":3,""viewing_time"":14020},{""page_index"":4,""viewing_time"":5085},{""page_index"":5,""viewing_time"":2657},{""page_index"":6,""viewing_time"":1714}]",39527,NA,NA,NA,NA,NA,NA,NA
NA,NA,NA,NA,NA,image-keyboard-response,78,267391,0.0-7.0-0.0-0.0,48,Study 48,Session 48,NA,2622,img/testing_events/Cb/Test_Cb_Event_6.jpg,u,response,c,NA,FALSE,Cb
NA,NA,NA,NA,NA,image-keyboard-response,79,269712,0.0-7.0-0.0-0.1,48,Study 48,Session 48,NA,2320,img/testing_events/Cb/Test_Cb_Event_19.jpg,n,response,n,NA,TRUE,Cb
NA,NA,NA,NA,NA,image-keyboard-response,80,271501,0.0-7.0-0.0-0.2,48,Study 48,Session 48,NA,1787,img/testing_events/Cb/Test_Cb_Event_22.jpg,c,response,c,NA,TRUE,Cb
NA,NA,NA,NA,NA,image-keyboard-response,81,273878,0.0-7.0-0.0-0.3,48,Study 48,Session 48,NA,2376,img/testing_events/Cb/Test_Cb_Event_4.jpg,c,response,e,NA,FALSE,Cb
NA,NA,NA,NA,NA,image-keyboard-response,82,276652,0.0-7.0-0.0-0.4,48,Study 48,Session 48,NA,2772,img/testing_events/Cb/Test_Cb_Event_18.jpg,n,response,c,NA,FALSE,Cb
NA,NA,NA,NA,NA,image-keyboard-response,83,278083,0.0-7.0-0.0-0.5,48,Study 48,Session 48,NA,1430,img/testing_events/Cb/Test_Cb_Event_14.jpg,n,response,c,NA,FALSE,Cb
NA,NA,NA,NA,NA,image-keyboard-response,84,279910,0.0-7.0-0.0-0.6,48,Study 48,Session 48,NA,1826,img/testing_events/Cb/Test_Cb_Event_12.jpg,u,response,e,NA,FALSE,Cb
NA,NA,NA,NA,NA,image-keyboard-response,85,280696,0.0-7.0-0.0-0.7,48,Study 48,Session 48,NA,785,img/testing_events/Cb/Test_Cb_Event_2.jpg,c,response,c,NA,TRUE,Cb
NA,NA,NA,NA,NA,image-keyboard-response,86,282674,0.0-7.0-0.0-0.8,48,Study 48,Session 48,NA,1977,img/testing_events/Cb/Test_Cb_Event_5.jpg,e,response,u,NA,FALSE,Cb
NA,NA,NA,NA,NA,image-keyboard-response,87,284236,0.0-7.0-0.0-0.9,48,Study 48,Session 48,NA,1561,img/testing_events/Cb/Test_Cb_Event_17.jpg,u,response,u,NA,TRUE,Cb
NA,NA,NA,NA,NA,image-keyboard-response,88,287730,0.0-7.0-0.0-0.10,48,Study 48,Session 48,NA,3494,img/testing_events/Cb/Test_Cb_Event_21.jpg,u,response,u,NA,TRUE,Cb
NA,NA,NA,NA,NA,image-keyboard-response,89,291573,0.0-7.0-0.0-0.11,48,Study 48,Session 48,NA,3841,img/testing_events/Cb/Test_Cb_Event_15.jpg,n,response,n,NA,TRUE,Cb
NA,NA,NA,NA,NA,image-keyboard-response,90,293733,0.0-7.0-0.0-0.12,48,Study 48,Session 48,NA,2158,img/testing_events/Cb/Test_Cb_Event_1.jpg,c,response,u,NA,FALSE,Cb
NA,NA,NA,NA,NA,image-keyboard-response,91,294855,0.0-7.0-0.0-0.13,48,Study 48,Session 48,NA,1121,img/testing_events/Cb/Test_Cb_Event_9.jpg,u,response,u,NA,TRUE,Cb
NA,NA,NA,NA,NA,image-keyboard-response,92,297600,0.0-7.0-0.0-0.14,48,Study 48,Session 48,NA,2744,img/testing_events/Cb/Test_Cb_Event_23.jpg,n,response,n,NA,TRUE,Cb
NA,NA,NA,NA,NA,image-keyboard-response,93,301243,0.0-7.0-0.0-0.15,48,Study 48,Session 48,NA,3640,img/testing_events/Cb/Test_Cb_Event_3.jpg,e,response,n,NA,FALSE,Cb
NA,NA,NA,NA,NA,image-keyboard-response,94,302678,0.0-7.0-0.0-0.16,48,Study 48,Session 48,NA,1434,img/testing_events/Cb/Test_Cb_Event_24.jpg,e,response,e,NA,TRUE,Cb
NA,NA,NA,NA,NA,image-keyboard-response,95,304158,0.0-7.0-0.0-0.17,48,Study 48,Session 48,NA,1479,img/testing_events/Cb/Test_Cb_Event_20.jpg,c,response,e,NA,FALSE,Cb
NA,NA,NA,NA,NA,image-keyboard-response,96,305382,0.0-7.0-0.0-0.18,48,Study 48,Session 48,NA,1222,img/testing_events/Cb/Test_Cb_Event_11.jpg,e,response,n,NA,FALSE,Cb
NA,NA,NA,NA,NA,image-keyboard-response,97,306800,0.0-7.0-0.0-0.19,48,Study 48,Session 48,NA,1417,img/testing_events/Cb/Test_Cb_Event_13.jpg,u,response,u,NA,TRUE,Cb
NA,NA,NA,NA,NA,image-keyboard-response,98,308000,0.0-7.0-0.0-0.20,48,Study 48,Session 48,NA,1199,img/testing_events/Cb/Test_Cb_Event_8.jpg,e,response,e,NA,TRUE,Cb
NA,NA,NA,NA,NA,image-keyboard-response,99,308972,0.0-7.0-0.0-0.21,48,Study 48,Session 48,NA,970,img/testing_events/Cb/Test_Cb_Event_10.jpg,e,response,c,NA,FALSE,Cb
NA,NA,NA,NA,NA,image-keyboard-response,100,310476,0.0-7.0-0.0-0.22,48,Study 48,Session 48,NA,1503,img/testing_events/Cb/Test_Cb_Event_7.jpg,n,response,n,NA,TRUE,Cb
NA,NA,NA,NA,NA,image-keyboard-response,101,311788,0.0-7.0-0.0-0.23,48,Study 48,Session 48,NA,1310,img/testing_events/Cb/Test_Cb_Event_16.jpg,e,response,e,NA,TRUE,Cb
NA,NA,NA,NA,NA,image-keyboard-response,102,313272,0.0-7.0-1.0-0.0,48,Study 48,Session 48,NA,1484,img/testing_events/Ac/Test_Ac_Event_14.jpg,e,response,c,NA,FALSE,Ac
NA,NA,NA,NA,NA,image-keyboard-response,103,315438,0.0-7.0-1.0-0.1,48,Study 48,Session 48,NA,2164,img/testing_events/Ac/Test_Ac_Event_16.jpg,n,response,e,NA,FALSE,Ac
NA,NA,NA,NA,NA,image-keyboard-response,104,317236,0.0-7.0-1.0-0.2,48,Study 48,Session 48,NA,1797,img/testing_events/Ac/Test_Ac_Event_11.jpg,n,response,n,NA,TRUE,Ac
NA,NA,NA,NA,NA,image-keyboard-response,105,319864,0.0-7.0-1.0-0.3,48,Study 48,Session 48,NA,2628,img/testing_events/Ac/Test_Ac_Event_3.jpg,e,response,n,NA,FALSE,Ac
NA,NA,NA,NA,NA,image-keyboard-response,106,321339,0.0-7.0-1.0-0.4,48,Study 48,Session 48,NA,1474,img/testing_events/Ac/Test_Ac_Event_19.jpg,e,response,n,NA,FALSE,Ac
NA,NA,NA,NA,NA,image-keyboard-response,107,323364,0.0-7.0-1.0-0.5,48,Study 48,Session 48,NA,2024,img/testing_events/Ac/Test_Ac_Event_8.jpg,c,response,e,NA,FALSE,Ac
NA,NA,NA,NA,NA,image-keyboard-response,108,326078,0.0-7.0-1.0-0.6,48,Study 48,Session 48,NA,2713,img/testing_events/Ac/Test_Ac_Event_22.jpg,e,response,c,NA,FALSE,Ac
NA,NA,NA,NA,NA,image-keyboard-response,109,329401,0.0-7.0-1.0-0.7,48,Study 48,Session 48,NA,3323,img/testing_events/Ac/Test_Ac_Event_2.jpg,c,response,c,NA,TRUE,Ac
NA,NA,NA,NA,NA,image-keyboard-response,110,331854,0.0-7.0-1.0-0.8,48,Study 48,Session 48,NA,2451,img/testing_events/Ac/Test_Ac_Event_1.jpg,e,response,u,NA,FALSE,Ac
NA,NA,NA,NA,NA,image-keyboard-response,111,333345,0.0-7.0-1.0-0.9,48,Study 48,Session 48,NA,1490,img/testing_events/Ac/Test_Ac_Event_17.jpg,u,response,u,NA,TRUE,Ac
NA,NA,NA,NA,NA,image-keyboard-response,112,337359,0.0-7.0-1.0-0.10,48,Study 48,Session 48,NA,4013,img/testing_events/Ac/Test_Ac_Event_6.jpg,n,response,c,NA,FALSE,Ac
NA,NA,NA,NA,NA,image-keyboard-response,113,340026,0.0-7.0-1.0-0.11,48,Study 48,Session 48,NA,2666,img/testing_events/Ac/Test_Ac_Event_7.jpg,n,response,n,NA,TRUE,Ac
NA,NA,NA,NA,NA,image-keyboard-response,114,345879,0.0-7.0-1.0-0.12,48,Study 48,Session 48,NA,5851,img/testing_events/Ac/Test_Ac_Event_23.jpg,n,response,n,NA,TRUE,Ac
NA,NA,NA,NA,NA,image-keyboard-response,115,348180,0.0-7.0-1.0-0.13,48,Study 48,Session 48,NA,2300,img/testing_events/Ac/Test_Ac_Event_4.jpg,e,response,e,NA,TRUE,Ac
NA,NA,NA,NA,NA,image-keyboard-response,116,349871,0.0-7.0-1.0-0.14,48,Study 48,Session 48,NA,1690,img/testing_events/Ac/Test_Ac_Event_13.jpg,n,response,u,NA,FALSE,Ac
NA,NA,NA,NA,NA,image-keyboard-response,117,351206,0.0-7.0-1.0-0.15,48,Study 48,Session 48,NA,1334,img/testing_events/Ac/Test_Ac_Event_18.jpg,e,response,c,NA,FALSE,Ac
NA,NA,NA,NA,NA,image-keyboard-response,118,353195,0.0-7.0-1.0-0.16,48,Study 48,Session 48,NA,1987,img/testing_events/Ac/Test_Ac_Event_5.jpg,e,response,u,NA,FALSE,Ac
NA,NA,NA,NA,NA,image-keyboard-response,119,356644,0.0-7.0-1.0-0.17,48,Study 48,Session 48,NA,3448,img/testing_events/Ac/Test_Ac_Event_12.jpg,n,response,e,NA,FALSE,Ac
NA,NA,NA,NA,NA,image-keyboard-response,120,359692,0.0-7.0-1.0-0.18,48,Study 48,Session 48,NA,3047,img/testing_events/Ac/Test_Ac_Event_15.jpg,c,response,n,NA,FALSE,Ac
NA,NA,NA,NA,NA,image-keyboard-response,121,361623,0.0-7.0-1.0-0.19,48,Study 48,Session 48,NA,1931,img/testing_events/Ac/Test_Ac_Event_9.jpg,u,response,u,NA,TRUE,Ac
NA,NA,NA,NA,NA,image-keyboard-response,122,365552,0.0-7.0-1.0-0.20,48,Study 48,Session 48,NA,3928,img/testing_events/Ac/Test_Ac_Event_21.jpg,u,response,u,NA,TRUE,Ac
NA,NA,NA,NA,NA,image-keyboard-response,123,368416,0.0-7.0-1.0-0.21,48,Study 48,Session 48,NA,2863,img/testing_events/Ac/Test_Ac_Event_10.jpg,u,response,c,NA,FALSE,Ac
NA,NA,NA,NA,NA,image-keyboard-response,124,371473,0.0-7.0-1.0-0.22,48,Study 48,Session 48,NA,3055,img/testing_events/Ac/Test_Ac_Event_20.jpg,u,response,e,NA,FALSE,Ac
NA,NA,NA,NA,NA,image-keyboard-response,125,373245,0.0-7.0-1.0-0.23,48,Study 48,Session 48,NA,1771,img/testing_events/Ac/Test_Ac_Event_24.jpg,c,response,e,NA,FALSE,Ac
NA,NA,NA,NA,NA,image-keyboard-response,126,374564,0.0-7.0-2.0-0.0,48,Study 48,Session 48,NA,1318,img/testing_events/Bc/Test_Bc_Event_7.jpg,u,response,u,NA,TRUE,Bc
NA,NA,NA,NA,NA,image-keyboard-response,127,376045,0.0-7.0-2.0-0.1,48,Study 48,Session 48,NA,1479,img/testing_events/Bc/Test_Bc_Event_11.jpg,e,response,u,NA,FALSE,Bc
NA,NA,NA,NA,NA,image-keyboard-response,128,377405,0.0-7.0-2.0-0.2,48,Study 48,Session 48,NA,1358,img/testing_events/Bc/Test_Bc_Event_12.jpg,e,response,c,NA,FALSE,Bc
NA,NA,NA,NA,NA,image-keyboard-response,129,378871,0.0-7.0-2.0-0.3,48,Study 48,Session 48,NA,1465,img/testing_events/Bc/Test_Bc_Event_23.jpg,u,response,u,NA,TRUE,Bc
NA,NA,NA,NA,NA,image-keyboard-response,130,381573,0.0-7.0-2.0-0.4,48,Study 48,Session 48,NA,2701,img/testing_events/Bc/Test_Bc_Event_14.jpg,u,response,e,NA,FALSE,Bc
NA,NA,NA,NA,NA,image-keyboard-response,131,382445,0.0-7.0-2.0-0.5,48,Study 48,Session 48,NA,871,img/testing_events/Bc/Test_Bc_Event_16.jpg,e,response,c,NA,FALSE,Bc
NA,NA,NA,NA,NA,image-keyboard-response,132,383484,0.0-7.0-2.0-0.6,48,Study 48,Session 48,NA,1037,img/testing_events/Bc/Test_Bc_Event_24.jpg,c,response,c,NA,TRUE,Bc
NA,NA,NA,NA,NA,image-keyboard-response,133,386383,0.0-7.0-2.0-0.7,48,Study 48,Session 48,NA,2898,img/testing_events/Bc/Test_Bc_Event_15.jpg,c,response,u,NA,FALSE,Bc
NA,NA,NA,NA,NA,image-keyboard-response,134,389344,0.0-7.0-2.0-0.8,48,Study 48,Session 48,NA,2959,img/testing_events/Bc/Test_Bc_Event_19.jpg,u,response,u,NA,TRUE,Bc
NA,NA,NA,NA,NA,image-keyboard-response,135,395020,0.0-7.0-2.0-0.9,48,Study 48,Session 48,NA,5675,img/testing_events/Bc/Test_Bc_Event_10.jpg,e,response,e,NA,TRUE,Bc
NA,NA,NA,NA,NA,image-keyboard-response,136,397276,0.0-7.0-2.0-0.10,48,Study 48,Session 48,NA,2255,img/testing_events/Bc/Test_Bc_Event_17.jpg,n,response,n,NA,TRUE,Bc
NA,NA,NA,NA,NA,image-keyboard-response,137,398599,0.0-7.0-2.0-0.11,48,Study 48,Session 48,NA,1322,img/testing_events/Bc/Test_Bc_Event_6.jpg,e,response,e,NA,TRUE,Bc
NA,NA,NA,NA,NA,image-keyboard-response,138,401092,0.0-7.0-2.0-0.12,48,Study 48,Session 48,NA,2492,img/testing_events/Bc/Test_Bc_Event_21.jpg,e,response,n,NA,FALSE,Bc
NA,NA,NA,NA,NA,image-keyboard-response,139,402759,0.0-7.0-2.0-0.13,48,Study 48,Session 48,NA,1666,img/testing_events/Bc/Test_Bc_Event_18.jpg,n,response,e,NA,FALSE,Bc
NA,NA,NA,NA,NA,image-keyboard-response,140,403442,0.0-7.0-2.0-0.14,48,Study 48,Session 48,NA,682,img/testing_events/Bc/Test_Bc_Event_1.jpg,e,response,n,NA,FALSE,Bc
NA,NA,NA,NA,NA,image-keyboard-response,141,404411,0.0-7.0-2.0-0.15,48,Study 48,Session 48,NA,967,img/testing_events/Bc/Test_Bc_Event_9.jpg,c,response,n,NA,FALSE,Bc
NA,NA,NA,NA,NA,image-keyboard-response,142,404824,0.0-7.0-2.0-0.16,48,Study 48,Session 48,NA,412,img/testing_events/Bc/Test_Bc_Event_3.jpg,u,response,u,NA,TRUE,Bc
NA,NA,NA,NA,NA,image-keyboard-response,143,405953,0.0-7.0-2.0-0.17,48,Study 48,Session 48,NA,1128,img/testing_events/Bc/Test_Bc_Event_22.jpg,e,response,e,NA,TRUE,Bc
NA,NA,NA,NA,NA,image-keyboard-response,144,407232,0.0-7.0-2.0-0.18,48,Study 48,Session 48,NA,1278,img/testing_events/Bc/Test_Bc_Event_8.jpg,u,response,c,NA,FALSE,Bc
NA,NA,NA,NA,NA,image-keyboard-response,145,408696,0.0-7.0-2.0-0.19,48,Study 48,Session 48,NA,1462,img/testing_events/Bc/Test_Bc_Event_5.jpg,c,response,n,NA,FALSE,Bc
NA,NA,NA,NA,NA,image-keyboard-response,146,410136,0.0-7.0-2.0-0.20,48,Study 48,Session 48,NA,1439,img/testing_events/Bc/Test_Bc_Event_20.jpg,u,response,c,NA,FALSE,Bc
NA,NA,NA,NA,NA,image-keyboard-response,147,411119,0.0-7.0-2.0-0.21,48,Study 48,Session 48,NA,981,img/testing_events/Bc/Test_Bc_Event_2.jpg,c,response,e,NA,FALSE,Bc
NA,NA,NA,NA,NA,image-keyboard-response,148,412592,0.0-7.0-2.0-0.22,48,Study 48,Session 48,NA,1472,img/testing_events/Bc/Test_Bc_Event_13.jpg,e,response,n,NA,FALSE,Bc
NA,NA,NA,NA,NA,image-keyboard-response,149,414921,0.0-7.0-2.0-0.23,48,Study 48,Session 48,NA,2327,img/testing_events/Bc/Test_Bc_Event_4.jpg,c,response,c,NA,TRUE,Bc
NA,NA,NA,NA,NA,image-keyboard-response,150,417559,0.0-7.0-3.0-0.0,48,Study 48,Session 48,NA,2637,img/testing_events/Ab/Test_Ab_Event_14.jpg,u,response,u,NA,TRUE,Ab
NA,NA,NA,NA,NA,image-keyboard-response,151,419826,0.0-7.0-3.0-0.1,48,Study 48,Session 48,NA,2266,img/testing_events/Ab/Test_Ab_Event_20.jpg,u,response,n,NA,FALSE,Ab
NA,NA,NA,NA,NA,image-keyboard-response,152,420932,0.0-7.0-3.0-0.2,48,Study 48,Session 48,NA,1104,img/testing_events/Ab/Test_Ab_Event_23.jpg,e,response,c,NA,FALSE,Ab
NA,NA,NA,NA,NA,image-keyboard-response,153,423171,0.0-7.0-3.0-0.3,48,Study 48,Session 48,NA,2237,img/testing_events/Ab/Test_Ab_Event_2.jpg,u,response,u,NA,TRUE,Ab
NA,NA,NA,NA,NA,image-keyboard-response,154,425233,0.0-7.0-3.0-0.4,48,Study 48,Session 48,NA,2061,img/testing_events/Ab/Test_Ab_Event_10.jpg,n,response,u,NA,FALSE,Ab
NA,NA,NA,NA,NA,image-keyboard-response,155,426527,0.0-7.0-3.0-0.5,48,Study 48,Session 48,NA,1292,img/testing_events/Ab/Test_Ab_Event_22.jpg,e,response,u,NA,FALSE,Ab
NA,NA,NA,NA,NA,image-keyboard-response,156,427369,0.0-7.0-3.0-0.6,48,Study 48,Session 48,NA,841,img/testing_events/Ab/Test_Ab_Event_1.jpg,u,response,e,NA,FALSE,Ab
NA,NA,NA,NA,NA,image-keyboard-response,157,428507,0.0-7.0-3.0-0.7,48,Study 48,Session 48,NA,1137,img/testing_events/Ab/Test_Ab_Event_15.jpg,c,response,c,NA,TRUE,Ab
NA,NA,NA,NA,NA,image-keyboard-response,158,429987,0.0-7.0-3.0-0.8,48,Study 48,Session 48,NA,1478,img/testing_events/Ab/Test_Ab_Event_18.jpg,e,response,u,NA,FALSE,Ab
NA,NA,NA,NA,NA,image-keyboard-response,159,430743,0.0-7.0-3.0-0.9,48,Study 48,Session 48,NA,755,img/testing_events/Ab/Test_Ab_Event_13.jpg,e,response,e,NA,TRUE,Ab
NA,NA,NA,NA,NA,image-keyboard-response,160,431810,0.0-7.0-3.0-0.10,48,Study 48,Session 48,NA,1066,img/testing_events/Ab/Test_Ab_Event_19.jpg,c,response,c,NA,TRUE,Ab
NA,NA,NA,NA,NA,image-keyboard-response,161,433733,0.0-7.0-3.0-0.11,48,Study 48,Session 48,NA,1922,img/testing_events/Ab/Test_Ab_Event_6.jpg,n,response,u,NA,FALSE,Ab
NA,NA,NA,NA,NA,image-keyboard-response,162,435184,0.0-7.0-3.0-0.12,48,Study 48,Session 48,NA,1449,img/testing_events/Ab/Test_Ab_Event_12.jpg,u,response,n,NA,FALSE,Ab
NA,NA,NA,NA,NA,image-keyboard-response,163,436428,0.0-7.0-3.0-0.13,48,Study 48,Session 48,NA,1243,img/testing_events/Ab/Test_Ab_Event_7.jpg,c,response,c,NA,TRUE,Ab
NA,NA,NA,NA,NA,image-keyboard-response,164,437324,0.0-7.0-3.0-0.14,48,Study 48,Session 48,NA,894,img/testing_events/Ab/Test_Ab_Event_11.jpg,n,response,c,NA,FALSE,Ab
NA,NA,NA,NA,NA,image-keyboard-response,165,438391,0.0-7.0-3.0-0.15,48,Study 48,Session 48,NA,1066,img/testing_events/Ab/Test_Ab_Event_17.jpg,e,response,e,NA,TRUE,Ab
NA,NA,NA,NA,NA,image-keyboard-response,166,439222,0.0-7.0-3.0-0.16,48,Study 48,Session 48,NA,830,img/testing_events/Ab/Test_Ab_Event_8.jpg,c,response,n,NA,FALSE,Ab
NA,NA,NA,NA,NA,image-keyboard-response,167,440838,0.0-7.0-3.0-0.17,48,Study 48,Session 48,NA,1615,img/testing_events/Ab/Test_Ab_Event_24.jpg,n,response,n,NA,TRUE,Ab
NA,NA,NA,NA,NA,image-keyboard-response,168,442319,0.0-7.0-3.0-0.18,48,Study 48,Session 48,NA,1479,img/testing_events/Ab/Test_Ab_Event_9.jpg,e,response,e,NA,TRUE,Ab
NA,NA,NA,NA,NA,image-keyboard-response,169,444706,0.0-7.0-3.0-0.19,48,Study 48,Session 48,NA,2385,img/testing_events/Ab/Test_Ab_Event_5.jpg,e,response,e,NA,TRUE,Ab
NA,NA,NA,NA,NA,image-keyboard-response,170,446977,0.0-7.0-3.0-0.20,48,Study 48,Session 48,NA,2271,img/testing_events/Ab/Test_Ab_Event_21.jpg,e,response,e,NA,TRUE,Ab
NA,NA,NA,NA,NA,image-keyboard-response,171,449254,0.0-7.0-3.0-0.21,48,Study 48,Session 48,NA,2276,img/testing_events/Ab/Test_Ab_Event_16.jpg,n,response,n,NA,TRUE,Ab
NA,NA,NA,NA,NA,image-keyboard-response,172,452953,0.0-7.0-3.0-0.22,48,Study 48,Session 48,NA,3697,img/testing_events/Ab/Test_Ab_Event_4.jpg,c,response,n,NA,FALSE,Ab
NA,NA,NA,NA,NA,image-keyboard-response,173,454007,0.0-7.0-3.0-0.23,48,Study 48,Session 48,NA,1053,img/testing_events/Ab/Test_Ab_Event_3.jpg,c,response,c,NA,TRUE,Ab
NA,NA,NA,NA,NA,image-keyboard-response,174,457251,0.0-7.0-4.0-0.0,48,Study 48,Session 48,NA,3243,img/testing_events/Ca/Test_Ca_Event_15.jpg,c,response,c,NA,TRUE,Ca
NA,NA,NA,NA,NA,image-keyboard-response,175,459919,0.0-7.0-4.0-0.1,48,Study 48,Session 48,NA,2666,img/testing_events/Ca/Test_Ca_Event_8.jpg,n,response,n,NA,TRUE,Ca
NA,NA,NA,NA,NA,image-keyboard-response,176,461990,0.0-7.0-4.0-0.2,48,Study 48,Session 48,NA,2070,img/testing_events/Ca/Test_Ca_Event_22.jpg,u,response,u,NA,TRUE,Ca
NA,NA,NA,NA,NA,image-keyboard-response,177,463312,0.0-7.0-4.0-0.3,48,Study 48,Session 48,NA,1321,img/testing_events/Ca/Test_Ca_Event_24.jpg,u,response,n,NA,FALSE,Ca
NA,NA,NA,NA,NA,image-keyboard-response,178,465649,0.0-7.0-4.0-0.4,48,Study 48,Session 48,NA,2336,img/testing_events/Ca/Test_Ca_Event_12.jpg,c,response,n,NA,FALSE,Ca
NA,NA,NA,NA,NA,image-keyboard-response,179,467538,0.0-7.0-4.0-0.5,48,Study 48,Session 48,NA,1887,img/testing_events/Ca/Test_Ca_Event_16.jpg,u,response,n,NA,FALSE,Ca
NA,NA,NA,NA,NA,image-keyboard-response,180,469568,0.0-7.0-4.0-0.6,48,Study 48,Session 48,NA,2029,img/testing_events/Ca/Test_Ca_Event_14.jpg,n,response,u,NA,FALSE,Ca
NA,NA,NA,NA,NA,image-keyboard-response,181,470404,0.0-7.0-4.0-0.7,48,Study 48,Session 48,NA,834,img/testing_events/Ca/Test_Ca_Event_21.jpg,e,response,e,NA,TRUE,Ca
NA,NA,NA,NA,NA,image-keyboard-response,182,472287,0.0-7.0-4.0-0.8,48,Study 48,Session 48,NA,1881,img/testing_events/Ca/Test_Ca_Event_6.jpg,e,response,u,NA,FALSE,Ca
NA,NA,NA,NA,NA,image-keyboard-response,183,475832,0.0-7.0-4.0-0.9,48,Study 48,Session 48,NA,3544,img/testing_events/Ca/Test_Ca_Event_13.jpg,e,response,e,NA,TRUE,Ca
NA,NA,NA,NA,NA,image-keyboard-response,184,477196,0.0-7.0-4.0-0.10,48,Study 48,Session 48,NA,1363,img/testing_events/Ca/Test_Ca_Event_10.jpg,n,response,u,NA,FALSE,Ca
NA,NA,NA,NA,NA,image-keyboard-response,185,479074,0.0-7.0-4.0-0.11,48,Study 48,Session 48,NA,1877,img/testing_events/Ca/Test_Ca_Event_1.jpg,e,response,e,NA,TRUE,Ca
NA,NA,NA,NA,NA,image-keyboard-response,186,480772,0.0-7.0-4.0-0.12,48,Study 48,Session 48,NA,1696,img/testing_events/Ca/Test_Ca_Event_23.jpg,c,response,c,NA,TRUE,Ca
NA,NA,NA,NA,NA,image-keyboard-response,187,482545,0.0-7.0-4.0-0.13,48,Study 48,Session 48,NA,1772,img/testing_events/Ca/Test_Ca_Event_2.jpg,u,response,u,NA,TRUE,Ca
NA,NA,NA,NA,NA,image-keyboard-response,188,484179,0.0-7.0-4.0-0.14,48,Study 48,Session 48,NA,1634,img/testing_events/Ca/Test_Ca_Event_5.jpg,u,response,e,NA,FALSE,Ca
NA,NA,NA,NA,NA,image-keyboard-response,189,490599,0.0-7.0-4.0-0.15,48,Study 48,Session 48,NA,6419,img/testing_events/Ca/Test_Ca_Event_7.jpg,c,response,c,NA,TRUE,Ca
NA,NA,NA,NA,NA,image-keyboard-response,190,492629,0.0-7.0-4.0-0.16,48,Study 48,Session 48,NA,2029,img/testing_events/Ca/Test_Ca_Event_20.jpg,n,response,n,NA,TRUE,Ca
NA,NA,NA,NA,NA,image-keyboard-response,191,496138,0.0-7.0-4.0-0.17,48,Study 48,Session 48,NA,3508,img/testing_events/Ca/Test_Ca_Event_3.jpg,e,response,c,NA,FALSE,Ca
NA,NA,NA,NA,NA,image-keyboard-response,192,498063,0.0-7.0-4.0-0.18,48,Study 48,Session 48,NA,1923,img/testing_events/Ca/Test_Ca_Event_11.jpg,c,response,c,NA,TRUE,Ca
NA,NA,NA,NA,NA,image-keyboard-response,193,500036,0.0-7.0-4.0-0.19,48,Study 48,Session 48,NA,1972,img/testing_events/Ca/Test_Ca_Event_4.jpg,e,response,n,NA,FALSE,Ca
NA,NA,NA,NA,NA,image-keyboard-response,194,504636,0.0-7.0-4.0-0.20,48,Study 48,Session 48,NA,4598,img/testing_events/Ca/Test_Ca_Event_18.jpg,u,response,u,NA,TRUE,Ca
NA,NA,NA,NA,NA,image-keyboard-response,195,505530,0.0-7.0-4.0-0.21,48,Study 48,Session 48,NA,893,img/testing_events/Ca/Test_Ca_Event_9.jpg,e,response,e,NA,TRUE,Ca
NA,NA,NA,NA,NA,image-keyboard-response,196,509741,0.0-7.0-4.0-0.22,48,Study 48,Session 48,NA,4209,img/testing_events/Ca/Test_Ca_Event_19.jpg,c,response,c,NA,TRUE,Ca
NA,NA,NA,NA,NA,image-keyboard-response,197,510863,0.0-7.0-4.0-0.23,48,Study 48,Session 48,NA,1121,img/testing_events/Ca/Test_Ca_Event_17.jpg,e,response,e,NA,TRUE,Ca
NA,NA,NA,NA,NA,image-keyboard-response,198,515727,0.0-7.0-5.0-0.0,48,Study 48,Session 48,NA,4864,img/testing_events/Ba/Test_Ba_Event_24.jpg,u,response,u,NA,TRUE,Ba
NA,NA,NA,NA,NA,image-keyboard-response,199,517697,0.0-7.0-5.0-0.1,48,Study 48,Session 48,NA,1969,img/testing_events/Ba/Test_Ba_Event_5.jpg,c,response,c,NA,TRUE,Ba
NA,NA,NA,NA,NA,image-keyboard-response,200,520386,0.0-7.0-5.0-0.2,48,Study 48,Session 48,NA,2688,img/testing_events/Ba/Test_Ba_Event_20.jpg,e,response,u,NA,FALSE,Ba
NA,NA,NA,NA,NA,image-keyboard-response,201,523638,0.0-7.0-5.0-0.3,48,Study 48,Session 48,NA,3251,img/testing_events/Ba/Test_Ba_Event_4.jpg,e,response,u,NA,FALSE,Ba
NA,NA,NA,NA,NA,image-keyboard-response,202,525166,0.0-7.0-5.0-0.4,48,Study 48,Session 48,NA,1527,img/testing_events/Ba/Test_Ba_Event_9.jpg,c,response,c,NA,TRUE,Ba
NA,NA,NA,NA,NA,image-keyboard-response,203,526369,0.0-7.0-5.0-0.5,48,Study 48,Session 48,NA,1201,img/testing_events/Ba/Test_Ba_Event_7.jpg,e,response,e,NA,TRUE,Ba
NA,NA,NA,NA,NA,image-keyboard-response,204,528580,0.0-7.0-5.0-0.6,48,Study 48,Session 48,NA,2210,img/testing_events/Ba/Test_Ba_Event_6.jpg,n,response,n,NA,TRUE,Ba
NA,NA,NA,NA,NA,image-keyboard-response,205,529526,0.0-7.0-5.0-0.7,48,Study 48,Session 48,NA,945,img/testing_events/Ba/Test_Ba_Event_23.jpg,e,response,e,NA,TRUE,Ba
NA,NA,NA,NA,NA,image-keyboard-response,206,531053,0.0-7.0-5.0-0.8,48,Study 48,Session 48,NA,1526,img/testing_events/Ba/Test_Ba_Event_11.jpg,n,response,e,NA,FALSE,Ba
NA,NA,NA,NA,NA,image-keyboard-response,207,533101,0.0-7.0-5.0-0.9,48,Study 48,Session 48,NA,2046,img/testing_events/Ba/Test_Ba_Event_17.jpg,c,response,c,NA,TRUE,Ba
NA,NA,NA,NA,NA,image-keyboard-response,208,536909,0.0-7.0-5.0-0.10,48,Study 48,Session 48,NA,3807,img/testing_events/Ba/Test_Ba_Event_10.jpg,e,response,n,NA,FALSE,Ba
NA,NA,NA,NA,NA,image-keyboard-response,209,537579,0.0-7.0-5.0-0.11,48,Study 48,Session 48,NA,668,img/testing_events/Ba/Test_Ba_Event_8.jpg,e,response,u,NA,FALSE,Ba
NA,NA,NA,NA,NA,image-keyboard-response,210,537986,0.0-7.0-5.0-0.12,48,Study 48,Session 48,NA,405,img/testing_events/Ba/Test_Ba_Event_2.jpg,e,response,n,NA,FALSE,Ba
NA,NA,NA,NA,NA,image-keyboard-response,211,539259,0.0-7.0-5.0-0.13,48,Study 48,Session 48,NA,1272,img/testing_events/Ba/Test_Ba_Event_13.jpg,e,response,c,NA,FALSE,Ba
NA,NA,NA,NA,NA,image-keyboard-response,212,540085,0.0-7.0-5.0-0.14,48,Study 48,Session 48,NA,824,img/testing_events/Ba/Test_Ba_Event_18.jpg,e,response,n,NA,FALSE,Ba
NA,NA,NA,NA,NA,image-keyboard-response,213,540899,0.0-7.0-5.0-0.15,48,Study 48,Session 48,NA,813,img/testing_events/Ba/Test_Ba_Event_14.jpg,e,response,n,NA,FALSE,Ba
NA,NA,NA,NA,NA,image-keyboard-response,214,541952,0.0-7.0-5.0-0.16,48,Study 48,Session 48,NA,1052,img/testing_events/Ba/Test_Ba_Event_19.jpg,e,response,e,NA,TRUE,Ba
NA,NA,NA,NA,NA,image-keyboard-response,215,542784,0.0-7.0-5.0-0.17,48,Study 48,Session 48,NA,831,img/testing_events/Ba/Test_Ba_Event_1.jpg,e,response,c,NA,FALSE,Ba
NA,NA,NA,NA,NA,image-keyboard-response,216,544958,0.0-7.0-5.0-0.18,48,Study 48,Session 48,NA,2174,img/testing_events/Ba/Test_Ba_Event_3.jpg,e,response,e,NA,TRUE,Ba
NA,NA,NA,NA,NA,image-keyboard-response,217,546131,0.0-7.0-5.0-0.19,48,Study 48,Session 48,NA,1171,img/testing_events/Ba/Test_Ba_Event_16.jpg,e,response,u,NA,FALSE,Ba
NA,NA,NA,NA,NA,image-keyboard-response,218,547129,0.0-7.0-5.0-0.20,48,Study 48,Session 48,NA,997,img/testing_events/Ba/Test_Ba_Event_15.jpg,u,response,e,NA,FALSE,Ba
NA,NA,NA,NA,NA,image-keyboard-response,219,549268,0.0-7.0-5.0-0.21,48,Study 48,Session 48,NA,2138,img/testing_events/Ba/Test_Ba_Event_22.jpg,e,response,n,NA,FALSE,Ba
NA,NA,NA,NA,NA,image-keyboard-response,220,549917,0.0-7.0-5.0-0.22,48,Study 48,Session 48,NA,648,img/testing_events/Ba/Test_Ba_Event_12.jpg,u,response,u,NA,TRUE,Ba
NA,NA,NA,NA,NA,image-keyboard-response,221,550507,0.0-7.0-5.0-0.23,48,Study 48,Session 48,NA,589,img/testing_events/Ba/Test_Ba_Event_21.jpg,u,response,c,NA,FALSE,Ba
NA,NA,NA,NA,NA,survey-text,222,600000,0.0-8.0,48,Study 48,Session 48,NA,49475,NA,"{""Q0"":""No"",""Q1"":""No"",""Q2"":""No""}",NA,NA,NA,NA,NA
NA,NA,NA,NA,NA,survey-html-form,223,654509,0.0-9.0,48,Study 48,Session 48,NA,54502,NA,"{""Gender"":""Male"",""Age"":""19"",""ColorBlind"":""No"",""Education"":""High School Graduate"",""Income"":""$100,000-$124,999"",""Race"":""Other/unknown"",""Fluent"":""Yes"",""AgeEnglish"":""0"",""Country"":""United States""}",NA,NA,NA,NA,NA
TRUE,NA,NA,NA,NA,fullscreen,224,654510,0.0-10.0,48,Study 48,Session 48,NA,NA,NA,NA,NA,NA,NA,NA,NA
