success,timeout,failed_images,failed_audio,failed_video,trial_type,trial_index,time_elapsed,internal_node_id,subject_id,study_id,session_id,view_history,rt,stimulus,response,task,correct_response,attention_duration,correct,retrieval_group
TRUE,FALSE,[],[],[],preload,0,18093,0.0-0.0,59,Study 59,Session 59,NA,NA,NA,NA,NA,NA,NA,NA,NA
TRUE,NA,NA,NA,NA,fullscreen,1,22881,0.0-1.0,59,Study 59,Session 59,NA,NA,NA,NA,NA,NA,NA,NA,NA
NA,NA,NA,NA,NA,instructions,2,34948,0.0-2.0,59,Study 59,Session 59,"[{""page_index"":0,""viewing_time"":12065}]",12066,NA,NA,NA,NA,NA,NA,NA
NA,NA,NA,NA,NA,html-keyboard-response,3,51119,0.0-3.0,59,Study 59,Session 59,NA,16169,"Welcome to the experiment. <br /><br />This experiment will take about 20 minutes. Please complete all in one sitting. <br /><br />For this study, <strong>please use</strong> a laptop or desktop computer (not a mobile phone or tablet). Also, please use either <u>Chrome or Firefox</u>. <br /><br />Once you begin, <strong>DO NOT</strong> refresh the browser, as the experiment will reset and you will lose your progress. <br /><br />Press the <strong class=""upperline"">B</strong> key on your keyboard to begin.",b,NA,NA,NA,NA,NA
NA,NA,NA,NA,NA,instructions,4,83960,0.0-4.0,59,Study 59,Session 59,"[{""page_index"":0,""viewing_time"":6737},{""page_index"":1,""viewing_time"":18147},{""page_index"":2,""viewing_time"":6954}]",31837,NA,NA,NA,NA,NA,NA,NA
NA,NA,NA,NA,NA,html-keyboard-response,5,86972,0.0-5.0-0.0,59,Study 59,Session 59,NA,null,"<div style=""font-size:60px;"">+</div>",null,fixation,NA,NA,NA,NA
NA,NA,NA,NA,NA,image-keyboard-response,6,92997,0.0-5.0-1.0,59,Study 59,Session 59,NA,null,img/encoding_events/Event_19.jpg,null,NA,NA,NA,NA,NA
NA,NA,NA,NA,NA,html-keyboard-response,7,93001,0.0-5.0-2.0,59,Study 59,Session 59,NA,null,Please press the <strong><u>j</u></strong> key to continue,null,response,j,0,FALSE,NA
NA,NA,NA,NA,NA,html-keyboard-response,8,93504,0.0-5.0-0.1,59,Study 59,Session 59,NA,null,"<div style=""font-size:60px;"">+</div>",null,fixation,NA,NA,NA,NA
NA,NA,NA,NA,NA,image-keyboard-response,9,99512,0.0-5.0-1.1,59,Study 59,Session 59,NA,null,img/encoding_events/Event_3.jpg,null,NA,NA,NA,NA,NA
NA,NA,NA,NA,NA,html-keyboard-response,10,99519,0.0-5.0-2.1,59,Study 59,Session 59,NA,null,Please press the <strong><u>k</u></strong> key to continue,null,response,k,0,FALSE,NA
NA,NA,NA,NA,NA,html-keyboard-response,11,100023,0.0-5.0-0.2,59,Study 59,Session 59,NA,null,"<div style=""font-size:60px;"">+</div>",null,fixation,NA,NA,NA,NA
NA,NA,NA,NA,NA,image-keyboard-response,12,106032,0.0-5.0-1.2,59,Study 59,Session 59,NA,null,img/encoding_events/Event_22.jpg,null,NA,NA,NA,NA,NA
NA,NA,NA,NA,NA,html-keyboard-response,13,106038,0.0-5.0-2.2,59,Study 59,Session 59,NA,null,Please press the <strong><u>a</u></strong> key to continue,null,response,a,0,FALSE,NA
NA,NA,NA,NA,NA,html-keyboard-response,14,106542,0.0-5.0-0.3,59,Study 59,Session 59,NA,null,"<div style=""font-size:60px;"">+</div>",null,fixation,NA,NA,NA,NA
NA,NA,NA,NA,NA,image-keyboard-response,15,112547,0.0-5.0-1.3,59,Study 59,Session 59,NA,null,img/encoding_events/Event_2.jpg,null,NA,NA,NA,NA,NA
NA,NA,NA,NA,NA,html-keyboard-response,16,114157,0.0-5.0-2.3,59,Study 59,Session 59,NA,1610,Please press the <strong><u>k</u></strong> key to continue,k,response,k,6000,TRUE,NA
NA,NA,NA,NA,NA,html-keyboard-response,17,114660,0.0-5.0-0.4,59,Study 59,Session 59,NA,null,"<div style=""font-size:60px;"">+</div>",null,fixation,NA,NA,NA,NA
NA,NA,NA,NA,NA,image-keyboard-response,18,120666,0.0-5.0-1.4,59,Study 59,Session 59,NA,null,img/encoding_events/Event_14.jpg,null,NA,NA,NA,NA,NA
NA,NA,NA,NA,NA,html-keyboard-response,19,120670,0.0-5.0-2.4,59,Study 59,Session 59,NA,null,Please press the <strong><u>d</u></strong> key to continue,null,response,d,0,FALSE,NA
NA,NA,NA,NA,NA,html-keyboard-response,20,121176,0.0-5.0-0.5,59,Study 59,Session 59,NA,null,"<div style=""font-size:60px;"">+</div>",null,fixation,NA,NA,NA,NA
NA,NA,NA,NA,NA,image-keyboard-response,21,127184,0.0-5.0-1.5,59,Study 59,Session 59,NA,null,img/encoding_events/Event_16.jpg,null,NA,NA,NA,NA,NA
NA,NA,NA,NA,NA,html-keyboard-response,22,127190,0.0-5.0-2.5,59,Study 59,Session 59,NA,null,Please press the <strong><u>s</u></strong> key to continue,null,response,s,0,FALSE,NA
NA,NA,NA,NA,NA,html-keyboard-response,23,127692,0.0-5.0-0.6,59,Study 59,Session 59,NA,null,"<div style=""font-size:60px;"">+</div>",null,fixation,NA,NA,NA,NA
NA,NA,NA,NA,NA,image-keyboard-response,24,133705,0.0-5.0-1.6,59,Study 59,Session 59,NA,null,img/encoding_events/Event_23.jpg,null,NA,NA,NA,NA,NA
NA,NA,NA,NA,NA,html-keyboard-response,25,133711,0.0-5.0-2.6,59,Study 59,Session 59,NA,null,Please press the <strong><u>s</u></strong> key to continue,null,response,s,0,FALSE,NA
NA,NA,NA,NA,NA,html-keyboard-response,26,134213,0.0-5.0-0.7,59,Study 59,Session 59,NA,null,"<div style=""font-size:60px;"">+</div>",null,fixation,NA,NA,NA,NA
NA,NA,NA,NA,NA,image-keyboard-response,27,140223,0.0-5.0-1.7,59,Study 59,Session 59,NA,null,img/encoding_events/Event_4.jpg,null,NA,NA,NA,NA,NA
NA,NA,NA,NA,NA,html-keyboard-response,28,141872,0.0-5.0-2.7,59,Study 59,Session 59,NA,1648,Please press the <strong><u>s</u></strong> key to continue,s,response,s,6000,TRUE,NA
NA,NA,NA,NA,NA,html-keyboard-response,29,142372,0.0-5.0-0.8,59,Study 59,Session 59,NA,null,"<div style=""font-size:60px;"">+</div>",null,fixation,NA,NA,NA,NA
NA,NA,NA,NA,NA,image-keyboard-response,30,148381,0.0-5.0-1.8,59,Study 59,Session 59,NA,null,img/encoding_events/Event_15.jpg,null,NA,NA,NA,NA,NA
NA,NA,NA,NA,NA,html-keyboard-response,31,148384,0.0-5.0-2.8,59,Study 59,Session 59,NA,null,Please press the <strong><u>k</u></strong> key to continue,null,response,k,0,FALSE,NA
NA,NA,NA,NA,NA,html-keyboard-response,32,148888,0.0-5.0-0.9,59,Study 59,Session 59,NA,null,"<div style=""font-size:60px;"">+</div>",null,fixation,NA,NA,NA,NA
NA,NA,NA,NA,NA,image-keyboard-response,33,154893,0.0-5.0-1.9,59,Study 59,Session 59,NA,null,img/encoding_events/Event_12.jpg,null,NA,NA,NA,NA,NA
NA,NA,NA,NA,NA,html-keyboard-response,34,154898,0.0-5.0-2.9,59,Study 59,Session 59,NA,null,Please press the <strong><u>a</u></strong> key to continue,null,response,a,0,FALSE,NA
NA,NA,NA,NA,NA,html-keyboard-response,35,155404,0.0-5.0-0.10,59,Study 59,Session 59,NA,null,"<div style=""font-size:60px;"">+</div>",null,fixation,NA,NA,NA,NA
NA,NA,NA,NA,NA,image-keyboard-response,36,161409,0.0-5.0-1.10,59,Study 59,Session 59,NA,null,img/encoding_events/Event_24.jpg,null,NA,NA,NA,NA,NA
NA,NA,NA,NA,NA,html-keyboard-response,37,161415,0.0-5.0-2.10,59,Study 59,Session 59,NA,null,Please press the <strong><u>f</u></strong> key to continue,null,response,f,0,FALSE,NA
NA,NA,NA,NA,NA,html-keyboard-response,38,161921,0.0-5.0-0.11,59,Study 59,Session 59,NA,null,"<div style=""font-size:60px;"">+</div>",null,fixation,NA,NA,NA,NA
NA,NA,NA,NA,NA,image-keyboard-response,39,167929,0.0-5.0-1.11,59,Study 59,Session 59,NA,null,img/encoding_events/Event_10.jpg,null,NA,NA,NA,NA,NA
NA,NA,NA,NA,NA,html-keyboard-response,40,169387,0.0-5.0-2.11,59,Study 59,Session 59,NA,1458,Please press the <strong><u>a</u></strong> key to continue,a,response,a,6000,TRUE,NA
NA,NA,NA,NA,NA,html-keyboard-response,41,169891,0.0-5.0-0.12,59,Study 59,Session 59,NA,null,"<div style=""font-size:60px;"">+</div>",null,fixation,NA,NA,NA,NA
NA,NA,NA,NA,NA,image-keyboard-response,42,175895,0.0-5.0-1.12,59,Study 59,Session 59,NA,null,img/encoding_events/Event_9.jpg,null,NA,NA,NA,NA,NA
NA,NA,NA,NA,NA,html-keyboard-response,43,175898,0.0-5.0-2.12,59,Study 59,Session 59,NA,null,Please press the <strong><u>a</u></strong> key to continue,null,response,a,0,FALSE,NA
NA,NA,NA,NA,NA,html-keyboard-response,44,176401,0.0-5.0-0.13,59,Study 59,Session 59,NA,null,"<div style=""font-size:60px;"">+</div>",null,fixation,NA,NA,NA,NA
NA,NA,NA,NA,NA,image-keyboard-response,45,182419,0.0-5.0-1.13,59,Study 59,Session 59,NA,null,img/encoding_events/Event_20.jpg,null,NA,NA,NA,NA,NA
NA,NA,NA,NA,NA,html-keyboard-response,46,182425,0.0-5.0-2.13,59,Study 59,Session 59,NA,null,Please press the <strong><u>s</u></strong> key to continue,null,response,s,0,FALSE,NA
NA,NA,NA,NA,NA,html-keyboard-response,47,182928,0.0-5.0-0.14,59,Study 59,Session 59,NA,null,"<div style=""font-size:60px;"">+</div>",null,fixation,NA,NA,NA,NA
NA,NA,NA,NA,NA,image-keyboard-response,48,188935,0.0-5.0-1.14,59,Study 59,Session 59,NA,null,img/encoding_events/Event_1.jpg,null,NA,NA,NA,NA,NA
NA,NA,NA,NA,NA,html-keyboard-response,49,188940,0.0-5.0-2.14,59,Study 59,Session 59,NA,null,Please press the <strong><u>k</u></strong> key to continue,null,response,k,0,FALSE,NA
NA,NA,NA,NA,NA,html-keyboard-response,50,189446,0.0-5.0-0.15,59,Study 59,Session 59,NA,null,"<div style=""font-size:60px;"">+</div>",null,fixation,NA,NA,NA,NA
NA,NA,NA,NA,NA,image-keyboard-response,51,195453,0.0-5.0-1.15,59,Study 59,Session 59,NA,null,img/encoding_events/Event_11.jpg,null,NA,NA,NA,NA,NA
NA,NA,NA,NA,NA,html-keyboard-response,52,198144,0.0-5.0-2.15,59,Study 59,Session 59,NA,2690,Please press the <strong><u>j</u></strong> key to continue,j,response,j,6000,TRUE,NA
NA,NA,NA,NA,NA,html-keyboard-response,53,198650,0.0-5.0-0.16,59,Study 59,Session 59,NA,null,"<div style=""font-size:60px;"">+</div>",null,fixation,NA,NA,NA,NA
NA,NA,NA,NA,NA,image-keyboard-response,54,204652,0.0-5.0-1.16,59,Study 59,Session 59,NA,null,img/encoding_events/Event_8.jpg,null,NA,NA,NA,NA,NA
NA,NA,NA,NA,NA,html-keyboard-response,55,204655,0.0-5.0-2.16,59,Study 59,Session 59,NA,null,Please press the <strong><u>d</u></strong> key to continue,null,response,d,0,FALSE,NA
NA,NA,NA,NA,NA,html-keyboard-response,56,205160,0.0-5.0-0.17,59,Study 59,Session 59,NA,null,"<div style=""font-size:60px;"">+</div>",null,fixation,NA,NA,NA,NA
NA,NA,NA,NA,NA,image-keyboard-response,57,211168,0.0-5.0-1.17,59,Study 59,Session 59,NA,null,img/encoding_events/Event_18.jpg,null,NA,NA,NA,NA,NA
NA,NA,NA,NA,NA,html-keyboard-response,58,211173,0.0-5.0-2.17,59,Study 59,Session 59,NA,null,Please press the <strong><u>k</u></strong> key to continue,null,response,k,0,FALSE,NA
NA,NA,NA,NA,NA,html-keyboard-response,59,211675,0.0-5.0-0.18,59,Study 59,Session 59,NA,null,"<div style=""font-size:60px;"">+</div>",null,fixation,NA,NA,NA,NA
NA,NA,NA,NA,NA,image-keyboard-response,60,217679,0.0-5.0-1.18,59,Study 59,Session 59,NA,null,img/encoding_events/Event_6.jpg,null,NA,NA,NA,NA,NA
NA,NA,NA,NA,NA,html-keyboard-response,61,217685,0.0-5.0-2.18,59,Study 59,Session 59,NA,null,Please press the <strong><u>j</u></strong> key to continue,null,response,j,0,FALSE,NA
NA,NA,NA,NA,NA,html-keyboard-response,62,218187,0.0-5.0-0.19,59,Study 59,Session 59,NA,null,"<div style=""font-size:60px;"">+</div>",null,fixation,NA,NA,NA,NA
NA,NA,NA,NA,NA,image-keyboard-response,63,224195,0.0-5.0-1.19,59,Study 59,Session 59,NA,null,img/encoding_events/Event_5.jpg,null,NA,NA,NA,NA,NA
NA,NA,NA,NA,NA,html-keyboard-response,64,225791,0.0-5.0-2.19,59,Study 59,Session 59,NA,1595,Please press the <strong><u>k</u></strong> key to continue,k,response,k,6000,TRUE,NA
NA,NA,NA,NA,NA,html-keyboard-response,65,226293,0.0-5.0-0.20,59,Study 59,Session 59,NA,null,"<div style=""font-size:60px;"">+</div>",null,fixation,NA,NA,NA,NA
NA,NA,NA,NA,NA,image-keyboard-response,66,232309,0.0-5.0-1.20,59,Study 59,Session 59,NA,null,img/encoding_events/Event_17.jpg,null,NA,NA,NA,NA,NA
NA,NA,NA,NA,NA,html-keyboard-response,67,232313,0.0-5.0-2.20,59,Study 59,Session 59,NA,null,Please press the <strong><u>f</u></strong> key to continue,null,response,f,0,FALSE,NA
NA,NA,NA,NA,NA,html-keyboard-response,68,232816,0.0-5.0-0.21,59,Study 59,Session 59,NA,null,"<div style=""font-size:60px;"">+</div>",null,fixation,NA,NA,NA,NA
NA,NA,NA,NA,NA,image-keyboard-response,69,238824,0.0-5.0-1.21,59,Study 59,Session 59,NA,null,img/encoding_events/Event_21.jpg,null,NA,NA,NA,NA,NA
NA,NA,NA,NA,NA,html-keyboard-response,70,238829,0.0-5.0-2.21,59,Study 59,Session 59,NA,null,Please press the <strong><u>a</u></strong> key to continue,null,response,a,0,FALSE,NA
NA,NA,NA,NA,NA,html-keyboard-response,71,239332,0.0-5.0-0.22,59,Study 59,Session 59,NA,null,"<div style=""font-size:60px;"">+</div>",null,fixation,NA,NA,NA,NA
NA,NA,NA,NA,NA,image-keyboard-response,72,245338,0.0-5.0-1.22,59,Study 59,Session 59,NA,null,img/encoding_events/Event_7.jpg,null,NA,NA,NA,NA,NA
NA,NA,NA,NA,NA,html-keyboard-response,73,245344,0.0-5.0-2.22,59,Study 59,Session 59,NA,null,Please press the <strong><u>j</u></strong> key to continue,null,response,j,0,FALSE,NA
NA,NA,NA,NA,NA,html-keyboard-response,74,245847,0.0-5.0-0.23,59,Study 59,Session 59,NA,null,"<div style=""font-size:60px;"">+</div>",null,fixation,NA,NA,NA,NA
NA,NA,NA,NA,NA,image-keyboard-response,75,251857,0.0-5.0-1.23,59,Study 59,Session 59,NA,null,img/encoding_events/Event_13.jpg,null,NA,NA,NA,NA,NA
NA,NA,NA,NA,NA,html-keyboard-response,76,253621,0.0-5.0-2.23,59,Study 59,Session 59,NA,1763,Please press the <strong><u>a</u></strong> key to continue,a,response,a,6000,TRUE,NA
NA,NA,NA,NA,NA,instructions,77,307815,0.0-6.0,59,Study 59,Session 59,"[{""page_index"":0,""viewing_time"":2633},{""page_index"":1,""viewing_time"":4560},{""page_index"":2,""viewing_time"":11683},{""page_index"":3,""viewing_time"":16598},{""page_index"":4,""viewing_time"":12237},{""page_index"":5,""viewing_time"":5123},{""page_index"":6,""viewing_time"":1360}]",54194,NA,NA,NA,NA,NA,NA,NA
NA,NA,NA,NA,NA,image-keyboard-response,78,313181,0.0-7.0-0.0-0.0,59,Study 59,Session 59,NA,2861,img/testing_events/Ab/Test_Ab_Event_20.jpg,n,response,n,NA,TRUE,Ab
NA,NA,NA,NA,NA,image-keyboard-response,79,316689,0.0-7.0-0.0-0.1,59,Study 59,Session 59,NA,3507,img/testing_events/Ab/Test_Ab_Event_7.jpg,c,response,c,NA,TRUE,Ab
NA,NA,NA,NA,NA,image-keyboard-response,80,318780,0.0-7.0-0.0-0.2,59,Study 59,Session 59,NA,2089,img/testing_events/Ab/Test_Ab_Event_17.jpg,e,response,e,NA,TRUE,Ab
NA,NA,NA,NA,NA,image-keyboard-response,81,321832,0.0-7.0-0.0-0.3,59,Study 59,Session 59,NA,3050,img/testing_events/Ab/Test_Ab_Event_21.jpg,e,response,e,NA,TRUE,Ab
NA,NA,NA,NA,NA,image-keyboard-response,82,323445,0.0-7.0-0.0-0.4,59,Study 59,Session 59,NA,1611,img/testing_events/Ab/Test_Ab_Event_9.jpg,e,response,e,NA,TRUE,Ab
NA,NA,NA,NA,NA,image-keyboard-response,83,326015,0.0-7.0-0.0-0.5,59,Study 59,Session 59,NA,2569,img/testing_events/Ab/Test_Ab_Event_2.jpg,u,response,u,NA,TRUE,Ab
NA,NA,NA,NA,NA,image-keyboard-response,84,328373,0.0-7.0-0.0-0.6,59,Study 59,Session 59,NA,2357,img/testing_events/Ab/Test_Ab_Event_6.jpg,u,response,u,NA,TRUE,Ab
NA,NA,NA,NA,NA,image-keyboard-response,85,333848,0.0-7.0-0.0-0.7,59,Study 59,Session 59,NA,5474,img/testing_events/Ab/Test_Ab_Event_14.jpg,u,response,u,NA,TRUE,Ab
NA,NA,NA,NA,NA,image-keyboard-response,86,337116,0.0-7.0-0.0-0.8,59,Study 59,Session 59,NA,3266,img/testing_events/Ab/Test_Ab_Event_24.jpg,n,response,n,NA,TRUE,Ab
NA,NA,NA,NA,NA,image-keyboard-response,87,340067,0.0-7.0-0.0-0.9,59,Study 59,Session 59,NA,2950,img/testing_events/Ab/Test_Ab_Event_5.jpg,e,response,e,NA,TRUE,Ab
NA,NA,NA,NA,NA,image-keyboard-response,88,342098,0.0-7.0-0.0-0.10,59,Study 59,Session 59,NA,2030,img/testing_events/Ab/Test_Ab_Event_1.jpg,e,response,e,NA,TRUE,Ab
NA,NA,NA,NA,NA,image-keyboard-response,89,348296,0.0-7.0-0.0-0.11,59,Study 59,Session 59,NA,6197,img/testing_events/Ab/Test_Ab_Event_8.jpg,n,response,n,NA,TRUE,Ab
NA,NA,NA,NA,NA,image-keyboard-response,90,350388,0.0-7.0-0.0-0.12,59,Study 59,Session 59,NA,2091,img/testing_events/Ab/Test_Ab_Event_12.jpg,n,response,n,NA,TRUE,Ab
NA,NA,NA,NA,NA,image-keyboard-response,91,353402,0.0-7.0-0.0-0.13,59,Study 59,Session 59,NA,3012,img/testing_events/Ab/Test_Ab_Event_22.jpg,u,response,u,NA,TRUE,Ab
NA,NA,NA,NA,NA,image-keyboard-response,92,355216,0.0-7.0-0.0-0.14,59,Study 59,Session 59,NA,1813,img/testing_events/Ab/Test_Ab_Event_10.jpg,u,response,u,NA,TRUE,Ab
NA,NA,NA,NA,NA,image-keyboard-response,93,357481,0.0-7.0-0.0-0.15,59,Study 59,Session 59,NA,2263,img/testing_events/Ab/Test_Ab_Event_19.jpg,c,response,c,NA,TRUE,Ab
NA,NA,NA,NA,NA,image-keyboard-response,94,359827,0.0-7.0-0.0-0.16,59,Study 59,Session 59,NA,2345,img/testing_events/Ab/Test_Ab_Event_18.jpg,u,response,u,NA,TRUE,Ab
NA,NA,NA,NA,NA,image-keyboard-response,95,363070,0.0-7.0-0.0-0.17,59,Study 59,Session 59,NA,3241,img/testing_events/Ab/Test_Ab_Event_23.jpg,e,response,c,NA,FALSE,Ab
NA,NA,NA,NA,NA,image-keyboard-response,96,364545,0.0-7.0-0.0-0.18,59,Study 59,Session 59,NA,1473,img/testing_events/Ab/Test_Ab_Event_15.jpg,c,response,c,NA,TRUE,Ab
NA,NA,NA,NA,NA,image-keyboard-response,97,367366,0.0-7.0-0.0-0.19,59,Study 59,Session 59,NA,2820,img/testing_events/Ab/Test_Ab_Event_16.jpg,n,response,n,NA,TRUE,Ab
NA,NA,NA,NA,NA,image-keyboard-response,98,369790,0.0-7.0-0.0-0.20,59,Study 59,Session 59,NA,2422,img/testing_events/Ab/Test_Ab_Event_11.jpg,c,response,c,NA,TRUE,Ab
NA,NA,NA,NA,NA,image-keyboard-response,99,372609,0.0-7.0-0.0-0.21,59,Study 59,Session 59,NA,2817,img/testing_events/Ab/Test_Ab_Event_13.jpg,e,response,e,NA,TRUE,Ab
NA,NA,NA,NA,NA,image-keyboard-response,100,376037,0.0-7.0-0.0-0.22,59,Study 59,Session 59,NA,3427,img/testing_events/Ab/Test_Ab_Event_4.jpg,n,response,n,NA,TRUE,Ab
NA,NA,NA,NA,NA,image-keyboard-response,101,377249,0.0-7.0-0.0-0.23,59,Study 59,Session 59,NA,1212,img/testing_events/Ab/Test_Ab_Event_3.jpg,c,response,c,NA,TRUE,Ab
NA,NA,NA,NA,NA,image-keyboard-response,102,384688,0.0-7.0-1.0-0.0,59,Study 59,Session 59,NA,7437,img/testing_events/Bc/Test_Bc_Event_16.jpg,c,response,c,NA,TRUE,Bc
NA,NA,NA,NA,NA,image-keyboard-response,103,387661,0.0-7.0-1.0-0.1,59,Study 59,Session 59,NA,2971,img/testing_events/Bc/Test_Bc_Event_17.jpg,n,response,n,NA,TRUE,Bc
NA,NA,NA,NA,NA,image-keyboard-response,104,389882,0.0-7.0-1.0-0.2,59,Study 59,Session 59,NA,2220,img/testing_events/Bc/Test_Bc_Event_13.jpg,n,response,n,NA,TRUE,Bc
NA,NA,NA,NA,NA,image-keyboard-response,105,392984,0.0-7.0-1.0-0.3,59,Study 59,Session 59,NA,3101,img/testing_events/Bc/Test_Bc_Event_8.jpg,c,response,c,NA,TRUE,Bc
NA,NA,NA,NA,NA,image-keyboard-response,106,398206,0.0-7.0-1.0-0.4,59,Study 59,Session 59,NA,5221,img/testing_events/Bc/Test_Bc_Event_24.jpg,c,response,c,NA,TRUE,Bc
NA,NA,NA,NA,NA,image-keyboard-response,107,400306,0.0-7.0-1.0-0.5,59,Study 59,Session 59,NA,2099,img/testing_events/Bc/Test_Bc_Event_12.jpg,c,response,c,NA,TRUE,Bc
NA,NA,NA,NA,NA,image-keyboard-response,108,402166,0.0-7.0-1.0-0.6,59,Study 59,Session 59,NA,1858,img/testing_events/Bc/Test_Bc_Event_11.jpg,u,response,u,NA,TRUE,Bc
NA,NA,NA,NA,NA,image-keyboard-response,109,404990,0.0-7.0-1.0-0.7,59,Study 59,Session 59,NA,2823,img/testing_events/Bc/Test_Bc_Event_21.jpg,n,response,n,NA,TRUE,Bc
NA,NA,NA,NA,NA,image-keyboard-response,110,407043,0.0-7.0-1.0-0.8,59,Study 59,Session 59,NA,2052,img/testing_events/Bc/Test_Bc_Event_22.jpg,u,response,e,NA,FALSE,Bc
NA,NA,NA,NA,NA,image-keyboard-response,111,410953,0.0-7.0-1.0-0.9,59,Study 59,Session 59,NA,3909,img/testing_events/Bc/Test_Bc_Event_2.jpg,e,response,e,NA,TRUE,Bc
NA,NA,NA,NA,NA,image-keyboard-response,112,415150,0.0-7.0-1.0-0.10,59,Study 59,Session 59,NA,4196,img/testing_events/Bc/Test_Bc_Event_14.jpg,e,response,e,NA,TRUE,Bc
NA,NA,NA,NA,NA,image-keyboard-response,113,418955,0.0-7.0-1.0-0.11,59,Study 59,Session 59,NA,3803,img/testing_events/Bc/Test_Bc_Event_5.jpg,n,response,n,NA,TRUE,Bc
NA,NA,NA,NA,NA,image-keyboard-response,114,422500,0.0-7.0-1.0-0.12,59,Study 59,Session 59,NA,3544,img/testing_events/Bc/Test_Bc_Event_19.jpg,u,response,u,NA,TRUE,Bc
NA,NA,NA,NA,NA,image-keyboard-response,115,426096,0.0-7.0-1.0-0.13,59,Study 59,Session 59,NA,3594,img/testing_events/Bc/Test_Bc_Event_10.jpg,e,response,e,NA,TRUE,Bc
NA,NA,NA,NA,NA,image-keyboard-response,116,430653,0.0-7.0-1.0-0.14,59,Study 59,Session 59,NA,4556,img/testing_events/Bc/Test_Bc_Event_7.jpg,n,response,u,NA,FALSE,Bc
NA,NA,NA,NA,NA,image-keyboard-response,117,434858,0.0-7.0-1.0-0.15,59,Study 59,Session 59,NA,4204,img/testing_events/Bc/Test_Bc_Event_20.jpg,u,response,c,NA,FALSE,Bc
NA,NA,NA,NA,NA,image-keyboard-response,118,437005,0.0-7.0-1.0-0.16,59,Study 59,Session 59,NA,2145,img/testing_events/Bc/Test_Bc_Event_1.jpg,n,response,n,NA,TRUE,Bc
NA,NA,NA,NA,NA,image-keyboard-response,119,438298,0.0-7.0-1.0-0.17,59,Study 59,Session 59,NA,1292,img/testing_events/Bc/Test_Bc_Event_6.jpg,e,response,e,NA,TRUE,Bc
NA,NA,NA,NA,NA,image-keyboard-response,120,445171,0.0-7.0-1.0-0.18,59,Study 59,Session 59,NA,6872,img/testing_events/Bc/Test_Bc_Event_23.jpg,e,response,u,NA,FALSE,Bc
NA,NA,NA,NA,NA,image-keyboard-response,121,447017,0.0-7.0-1.0-0.19,59,Study 59,Session 59,NA,1845,img/testing_events/Bc/Test_Bc_Event_4.jpg,c,response,c,NA,TRUE,Bc
NA,NA,NA,NA,NA,image-keyboard-response,122,449834,0.0-7.0-1.0-0.20,59,Study 59,Session 59,NA,2815,img/testing_events/Bc/Test_Bc_Event_3.jpg,u,response,u,NA,TRUE,Bc
NA,NA,NA,NA,NA,image-keyboard-response,123,453783,0.0-7.0-1.0-0.21,59,Study 59,Session 59,NA,3947,img/testing_events/Bc/Test_Bc_Event_18.jpg,c,response,e,NA,FALSE,Bc
NA,NA,NA,NA,NA,image-keyboard-response,124,456450,0.0-7.0-1.0-0.22,59,Study 59,Session 59,NA,2666,img/testing_events/Bc/Test_Bc_Event_15.jpg,u,response,u,NA,TRUE,Bc
NA,NA,NA,NA,NA,image-keyboard-response,125,458897,0.0-7.0-1.0-0.23,59,Study 59,Session 59,NA,2446,img/testing_events/Bc/Test_Bc_Event_9.jpg,n,response,n,NA,TRUE,Bc
NA,NA,NA,NA,NA,image-keyboard-response,126,462737,0.0-7.0-2.0-0.0,59,Study 59,Session 59,NA,3839,img/testing_events/Ac/Test_Ac_Event_17.jpg,u,response,u,NA,TRUE,Ac
NA,NA,NA,NA,NA,image-keyboard-response,127,471789,0.0-7.0-2.0-0.1,59,Study 59,Session 59,NA,9050,img/testing_events/Ac/Test_Ac_Event_9.jpg,e,response,u,NA,FALSE,Ac
NA,NA,NA,NA,NA,image-keyboard-response,128,474248,0.0-7.0-2.0-0.2,59,Study 59,Session 59,NA,2458,img/testing_events/Ac/Test_Ac_Event_21.jpg,u,response,u,NA,TRUE,Ac
NA,NA,NA,NA,NA,image-keyboard-response,129,476515,0.0-7.0-2.0-0.3,59,Study 59,Session 59,NA,2266,img/testing_events/Ac/Test_Ac_Event_20.jpg,e,response,e,NA,TRUE,Ac
NA,NA,NA,NA,NA,image-keyboard-response,130,477943,0.0-7.0-2.0-0.4,59,Study 59,Session 59,NA,1426,img/testing_events/Ac/Test_Ac_Event_12.jpg,e,response,e,NA,TRUE,Ac
NA,NA,NA,NA,NA,image-keyboard-response,131,479806,0.0-7.0-2.0-0.5,59,Study 59,Session 59,NA,1861,img/testing_events/Ac/Test_Ac_Event_5.jpg,u,response,u,NA,TRUE,Ac
NA,NA,NA,NA,NA,image-keyboard-response,132,482734,0.0-7.0-2.0-0.6,59,Study 59,Session 59,NA,2927,img/testing_events/Ac/Test_Ac_Event_15.jpg,n,response,n,NA,TRUE,Ac
NA,NA,NA,NA,NA,image-keyboard-response,133,485647,0.0-7.0-2.0-0.7,59,Study 59,Session 59,NA,2911,img/testing_events/Ac/Test_Ac_Event_14.jpg,c,response,c,NA,TRUE,Ac
NA,NA,NA,NA,NA,image-keyboard-response,134,490178,0.0-7.0-2.0-0.8,59,Study 59,Session 59,NA,4530,img/testing_events/Ac/Test_Ac_Event_19.jpg,n,response,n,NA,TRUE,Ac
NA,NA,NA,NA,NA,image-keyboard-response,135,495224,0.0-7.0-2.0-0.9,59,Study 59,Session 59,NA,5046,img/testing_events/Ac/Test_Ac_Event_23.jpg,e,response,n,NA,FALSE,Ac
NA,NA,NA,NA,NA,image-keyboard-response,136,496404,0.0-7.0-2.0-0.10,59,Study 59,Session 59,NA,1178,img/testing_events/Ac/Test_Ac_Event_1.jpg,u,response,u,NA,TRUE,Ac
NA,NA,NA,NA,NA,image-keyboard-response,137,498554,0.0-7.0-2.0-0.11,59,Study 59,Session 59,NA,2149,img/testing_events/Ac/Test_Ac_Event_13.jpg,u,response,u,NA,TRUE,Ac
NA,NA,NA,NA,NA,image-keyboard-response,138,504175,0.0-7.0-2.0-0.12,59,Study 59,Session 59,NA,5620,img/testing_events/Ac/Test_Ac_Event_3.jpg,c,response,n,NA,FALSE,Ac
NA,NA,NA,NA,NA,image-keyboard-response,139,505988,0.0-7.0-2.0-0.13,59,Study 59,Session 59,NA,1811,img/testing_events/Ac/Test_Ac_Event_8.jpg,e,response,e,NA,TRUE,Ac
NA,NA,NA,NA,NA,image-keyboard-response,140,508107,0.0-7.0-2.0-0.14,59,Study 59,Session 59,NA,2118,img/testing_events/Ac/Test_Ac_Event_10.jpg,c,response,c,NA,TRUE,Ac
NA,NA,NA,NA,NA,image-keyboard-response,141,511409,0.0-7.0-2.0-0.15,59,Study 59,Session 59,NA,3301,img/testing_events/Ac/Test_Ac_Event_18.jpg,c,response,c,NA,TRUE,Ac
NA,NA,NA,NA,NA,image-keyboard-response,142,513824,0.0-7.0-2.0-0.16,59,Study 59,Session 59,NA,2414,img/testing_events/Ac/Test_Ac_Event_6.jpg,c,response,c,NA,TRUE,Ac
NA,NA,NA,NA,NA,image-keyboard-response,143,515497,0.0-7.0-2.0-0.17,59,Study 59,Session 59,NA,1672,img/testing_events/Ac/Test_Ac_Event_16.jpg,e,response,e,NA,TRUE,Ac
NA,NA,NA,NA,NA,image-keyboard-response,144,517358,0.0-7.0-2.0-0.18,59,Study 59,Session 59,NA,1860,img/testing_events/Ac/Test_Ac_Event_4.jpg,e,response,e,NA,TRUE,Ac
NA,NA,NA,NA,NA,image-keyboard-response,145,518777,0.0-7.0-2.0-0.19,59,Study 59,Session 59,NA,1417,img/testing_events/Ac/Test_Ac_Event_2.jpg,c,response,c,NA,TRUE,Ac
NA,NA,NA,NA,NA,image-keyboard-response,146,520325,0.0-7.0-2.0-0.20,59,Study 59,Session 59,NA,1547,img/testing_events/Ac/Test_Ac_Event_11.jpg,n,response,n,NA,TRUE,Ac
NA,NA,NA,NA,NA,image-keyboard-response,147,522091,0.0-7.0-2.0-0.21,59,Study 59,Session 59,NA,1765,img/testing_events/Ac/Test_Ac_Event_7.jpg,n,response,n,NA,TRUE,Ac
NA,NA,NA,NA,NA,image-keyboard-response,148,524146,0.0-7.0-2.0-0.22,59,Study 59,Session 59,NA,2054,img/testing_events/Ac/Test_Ac_Event_24.jpg,c,response,e,NA,FALSE,Ac
NA,NA,NA,NA,NA,image-keyboard-response,149,527230,0.0-7.0-2.0-0.23,59,Study 59,Session 59,NA,3083,img/testing_events/Ac/Test_Ac_Event_22.jpg,c,response,c,NA,TRUE,Ac
NA,NA,NA,NA,NA,image-keyboard-response,150,529251,0.0-7.0-3.0-0.0,59,Study 59,Session 59,NA,2020,img/testing_events/Ca/Test_Ca_Event_5.jpg,e,response,e,NA,TRUE,Ca
NA,NA,NA,NA,NA,image-keyboard-response,151,530354,0.0-7.0-3.0-0.1,59,Study 59,Session 59,NA,1101,img/testing_events/Ca/Test_Ca_Event_1.jpg,e,response,e,NA,TRUE,Ca
NA,NA,NA,NA,NA,image-keyboard-response,152,532535,0.0-7.0-3.0-0.2,59,Study 59,Session 59,NA,2180,img/testing_events/Ca/Test_Ca_Event_23.jpg,u,response,c,NA,FALSE,Ca
NA,NA,NA,NA,NA,image-keyboard-response,153,535165,0.0-7.0-3.0-0.3,59,Study 59,Session 59,NA,2629,img/testing_events/Ca/Test_Ca_Event_3.jpg,c,response,c,NA,TRUE,Ca
NA,NA,NA,NA,NA,image-keyboard-response,154,538033,0.0-7.0-3.0-0.4,59,Study 59,Session 59,NA,2866,img/testing_events/Ca/Test_Ca_Event_10.jpg,u,response,u,NA,TRUE,Ca
NA,NA,NA,NA,NA,image-keyboard-response,155,542967,0.0-7.0-3.0-0.5,59,Study 59,Session 59,NA,4933,img/testing_events/Ca/Test_Ca_Event_9.jpg,e,response,e,NA,TRUE,Ca
NA,NA,NA,NA,NA,image-keyboard-response,156,545192,0.0-7.0-3.0-0.6,59,Study 59,Session 59,NA,2224,img/testing_events/Ca/Test_Ca_Event_4.jpg,n,response,n,NA,TRUE,Ca
NA,NA,NA,NA,NA,image-keyboard-response,157,547739,0.0-7.0-3.0-0.7,59,Study 59,Session 59,NA,2545,img/testing_events/Ca/Test_Ca_Event_6.jpg,u,response,u,NA,TRUE,Ca
NA,NA,NA,NA,NA,image-keyboard-response,158,551035,0.0-7.0-3.0-0.8,59,Study 59,Session 59,NA,3295,img/testing_events/Ca/Test_Ca_Event_19.jpg,c,response,c,NA,TRUE,Ca
NA,NA,NA,NA,NA,image-keyboard-response,159,553380,0.0-7.0-3.0-0.9,59,Study 59,Session 59,NA,2344,img/testing_events/Ca/Test_Ca_Event_21.jpg,e,response,e,NA,TRUE,Ca
NA,NA,NA,NA,NA,image-keyboard-response,160,555061,0.0-7.0-3.0-0.10,59,Study 59,Session 59,NA,1680,img/testing_events/Ca/Test_Ca_Event_13.jpg,e,response,e,NA,TRUE,Ca
NA,NA,NA,NA,NA,image-keyboard-response,161,556894,0.0-7.0-3.0-0.11,59,Study 59,Session 59,NA,1832,img/testing_events/Ca/Test_Ca_Event_7.jpg,c,response,c,NA,TRUE,Ca
NA,NA,NA,NA,NA,image-keyboard-response,162,559218,0.0-7.0-3.0-0.12,59,Study 59,Session 59,NA,2323,img/testing_events/Ca/Test_Ca_Event_2.jpg,u,response,u,NA,TRUE,Ca
NA,NA,NA,NA,NA,image-keyboard-response,163,560884,0.0-7.0-3.0-0.13,59,Study 59,Session 59,NA,1664,img/testing_events/Ca/Test_Ca_Event_11.jpg,c,response,c,NA,TRUE,Ca
NA,NA,NA,NA,NA,image-keyboard-response,164,564082,0.0-7.0-3.0-0.14,59,Study 59,Session 59,NA,3197,img/testing_events/Ca/Test_Ca_Event_24.jpg,c,response,n,NA,FALSE,Ca
NA,NA,NA,NA,NA,image-keyboard-response,165,566381,0.0-7.0-3.0-0.15,59,Study 59,Session 59,NA,2297,img/testing_events/Ca/Test_Ca_Event_22.jpg,u,response,u,NA,TRUE,Ca
NA,NA,NA,NA,NA,image-keyboard-response,166,567940,0.0-7.0-3.0-0.16,59,Study 59,Session 59,NA,1558,img/testing_events/Ca/Test_Ca_Event_8.jpg,n,response,n,NA,TRUE,Ca
NA,NA,NA,NA,NA,image-keyboard-response,167,569880,0.0-7.0-3.0-0.17,59,Study 59,Session 59,NA,1939,img/testing_events/Ca/Test_Ca_Event_17.jpg,e,response,e,NA,TRUE,Ca
NA,NA,NA,NA,NA,image-keyboard-response,168,574036,0.0-7.0-3.0-0.18,59,Study 59,Session 59,NA,4154,img/testing_events/Ca/Test_Ca_Event_14.jpg,u,response,u,NA,TRUE,Ca
NA,NA,NA,NA,NA,image-keyboard-response,169,575801,0.0-7.0-3.0-0.19,59,Study 59,Session 59,NA,1764,img/testing_events/Ca/Test_Ca_Event_16.jpg,n,response,n,NA,TRUE,Ca
NA,NA,NA,NA,NA,image-keyboard-response,170,577137,0.0-7.0-3.0-0.20,59,Study 59,Session 59,NA,1335,img/testing_events/Ca/Test_Ca_Event_15.jpg,c,response,c,NA,TRUE,Ca
NA,NA,NA,NA,NA,image-keyboard-response,171,578822,0.0-7.0-3.0-0.21,59,Study 59,Session 59,NA,1683,img/testing_events/Ca/Test_Ca_Event_20.jpg,n,response,n,NA,TRUE,Ca
NA,NA,NA,NA,NA,image-keyboard-response,172,582667,0.0-7.0-3.0-0.22,59,Study 59,Session 59,NA,3843,img/testing_events/Ca/Test_Ca_Event_18.jpg,u,response,u,NA,TRUE,Ca
NA,NA,NA,NA,NA,image-keyboard-response,173,584680,0.0-7.0-3.0-0.23,59,Study 59,Session 59,NA,2012,img/testing_events/Ca/Test_Ca_Event_12.jpg,n,response,n,NA,TRUE,Ca
NA,NA,NA,NA,NA,image-keyboard-response,174,586061,0.0-7.0-4.0-0.0,59,Study 59,Session 59,NA,1380,img/testing_events/Cb/Test_Cb_Event_4.jpg,e,response,e,NA,TRUE,Cb
NA,NA,NA,NA,NA,image-keyboard-response,175,590348,0.0-7.0-4.0-0.1,59,Study 59,Session 59,NA,4286,img/testing_events/Cb/Test_Cb_Event_18.jpg,u,response,c,NA,FALSE,Cb
NA,NA,NA,NA,NA,image-keyboard-response,176,596783,0.0-7.0-4.0-0.2,59,Study 59,Session 59,NA,6433,img/testing_events/Cb/Test_Cb_Event_22.jpg,c,response,c,NA,TRUE,Cb
NA,NA,NA,NA,NA,image-keyboard-response,177,598300,0.0-7.0-4.0-0.3,59,Study 59,Session 59,NA,1516,img/testing_events/Cb/Test_Cb_Event_14.jpg,c,response,c,NA,TRUE,Cb
NA,NA,NA,NA,NA,image-keyboard-response,178,600018,0.0-7.0-4.0-0.4,59,Study 59,Session 59,NA,1717,img/testing_events/Cb/Test_Cb_Event_5.jpg,u,response,u,NA,TRUE,Cb
NA,NA,NA,NA,NA,image-keyboard-response,179,601300,0.0-7.0-4.0-0.5,59,Study 59,Session 59,NA,1280,img/testing_events/Cb/Test_Cb_Event_21.jpg,u,response,u,NA,TRUE,Cb
NA,NA,NA,NA,NA,image-keyboard-response,180,603523,0.0-7.0-4.0-0.6,59,Study 59,Session 59,NA,2222,img/testing_events/Cb/Test_Cb_Event_23.jpg,n,response,n,NA,TRUE,Cb
NA,NA,NA,NA,NA,image-keyboard-response,181,605600,0.0-7.0-4.0-0.7,59,Study 59,Session 59,NA,2076,img/testing_events/Cb/Test_Cb_Event_3.jpg,u,response,n,NA,FALSE,Cb
NA,NA,NA,NA,NA,image-keyboard-response,182,607316,0.0-7.0-4.0-0.8,59,Study 59,Session 59,NA,1714,img/testing_events/Cb/Test_Cb_Event_15.jpg,n,response,n,NA,TRUE,Cb
NA,NA,NA,NA,NA,image-keyboard-response,183,610141,0.0-7.0-4.0-0.9,59,Study 59,Session 59,NA,2824,img/testing_events/Cb/Test_Cb_Event_11.jpg,n,response,n,NA,TRUE,Cb
NA,NA,NA,NA,NA,image-keyboard-response,184,611790,0.0-7.0-4.0-0.10,59,Study 59,Session 59,NA,1648,img/testing_events/Cb/Test_Cb_Event_13.jpg,u,response,u,NA,TRUE,Cb
NA,NA,NA,NA,NA,image-keyboard-response,185,613024,0.0-7.0-4.0-0.11,59,Study 59,Session 59,NA,1232,img/testing_events/Cb/Test_Cb_Event_20.jpg,e,response,e,NA,TRUE,Cb
NA,NA,NA,NA,NA,image-keyboard-response,186,614645,0.0-7.0-4.0-0.12,59,Study 59,Session 59,NA,1619,img/testing_events/Cb/Test_Cb_Event_10.jpg,c,response,c,NA,TRUE,Cb
NA,NA,NA,NA,NA,image-keyboard-response,187,616077,0.0-7.0-4.0-0.13,59,Study 59,Session 59,NA,1431,img/testing_events/Cb/Test_Cb_Event_1.jpg,u,response,u,NA,TRUE,Cb
NA,NA,NA,NA,NA,image-keyboard-response,188,617441,0.0-7.0-4.0-0.14,59,Study 59,Session 59,NA,1363,img/testing_events/Cb/Test_Cb_Event_2.jpg,c,response,c,NA,TRUE,Cb
NA,NA,NA,NA,NA,image-keyboard-response,189,618818,0.0-7.0-4.0-0.15,59,Study 59,Session 59,NA,1376,img/testing_events/Cb/Test_Cb_Event_17.jpg,u,response,u,NA,TRUE,Cb
NA,NA,NA,NA,NA,image-keyboard-response,190,623264,0.0-7.0-4.0-0.16,59,Study 59,Session 59,NA,4444,img/testing_events/Cb/Test_Cb_Event_24.jpg,n,response,e,NA,FALSE,Cb
NA,NA,NA,NA,NA,image-keyboard-response,191,624768,0.0-7.0-4.0-0.17,59,Study 59,Session 59,NA,1502,img/testing_events/Cb/Test_Cb_Event_8.jpg,e,response,e,NA,TRUE,Cb
NA,NA,NA,NA,NA,image-keyboard-response,192,626334,0.0-7.0-4.0-0.18,59,Study 59,Session 59,NA,1565,img/testing_events/Cb/Test_Cb_Event_16.jpg,e,response,e,NA,TRUE,Cb
NA,NA,NA,NA,NA,image-keyboard-response,193,628807,0.0-7.0-4.0-0.19,59,Study 59,Session 59,NA,2472,img/testing_events/Cb/Test_Cb_Event_9.jpg,u,response,u,NA,TRUE,Cb
NA,NA,NA,NA,NA,image-keyboard-response,194,630731,0.0-7.0-4.0-0.20,59,Study 59,Session 59,NA,1923,img/testing_events/Cb/Test_Cb_Event_6.jpg,c,response,c,NA,TRUE,Cb
NA,NA,NA,NA,NA,image-keyboard-response,195,633806,0.0-7.0-4.0-0.21,59,Study 59,Session 59,NA,3074,img/testing_events/Cb/Test_Cb_Event_7.jpg,n,response,n,NA,TRUE,Cb
NA,NA,NA,NA,NA,image-keyboard-response,196,635789,0.0-7.0-4.0-0.22,59,Study 59,Session 59,NA,1982,img/testing_events/Cb/Test_Cb_Event_19.jpg,n,response,n,NA,TRUE,Cb
NA,NA,NA,NA,NA,image-keyboard-response,197,637231,0.0-7.0-4.0-0.23,59,Study 59,Session 59,NA,1440,img/testing_events/Cb/Test_Cb_Event_12.jpg,e,response,e,NA,TRUE,Cb
NA,NA,NA,NA,NA,image-keyboard-response,198,639489,0.0-7.0-5.0-0.0,59,Study 59,Session 59,NA,2257,img/testing_events/Ba/Test_Ba_Event_12.jpg,u,response,u,NA,TRUE,Ba
NA,NA,NA,NA,NA,image-keyboard-response,199,641276,0.0-7.0-5.0-0.1,59,Study 59,Session 59,NA,1786,img/testing_events/Ba/Test_Ba_Event_7.jpg,e,response,e,NA,TRUE,Ba
NA,NA,NA,NA,NA,image-keyboard-response,200,642940,0.0-7.0-5.0-0.2,59,Study 59,Session 59,NA,1662,img/testing_events/Ba/Test_Ba_Event_21.jpg,c,response,c,NA,TRUE,Ba
NA,NA,NA,NA,NA,image-keyboard-response,201,645784,0.0-7.0-5.0-0.3,59,Study 59,Session 59,NA,2843,img/testing_events/Ba/Test_Ba_Event_22.jpg,n,response,n,NA,TRUE,Ba
NA,NA,NA,NA,NA,image-keyboard-response,202,647361,0.0-7.0-5.0-0.4,59,Study 59,Session 59,NA,1576,img/testing_events/Ba/Test_Ba_Event_5.jpg,c,response,c,NA,TRUE,Ba
NA,NA,NA,NA,NA,image-keyboard-response,203,649130,0.0-7.0-5.0-0.5,59,Study 59,Session 59,NA,1768,img/testing_events/Ba/Test_Ba_Event_17.jpg,c,response,c,NA,TRUE,Ba
NA,NA,NA,NA,NA,image-keyboard-response,204,650409,0.0-7.0-5.0-0.6,59,Study 59,Session 59,NA,1277,img/testing_events/Ba/Test_Ba_Event_11.jpg,e,response,e,NA,TRUE,Ba
NA,NA,NA,NA,NA,image-keyboard-response,205,653129,0.0-7.0-5.0-0.7,59,Study 59,Session 59,NA,2718,img/testing_events/Ba/Test_Ba_Event_24.jpg,u,response,u,NA,TRUE,Ba
NA,NA,NA,NA,NA,image-keyboard-response,206,654640,0.0-7.0-5.0-0.8,59,Study 59,Session 59,NA,1510,img/testing_events/Ba/Test_Ba_Event_19.jpg,e,response,e,NA,TRUE,Ba
NA,NA,NA,NA,NA,image-keyboard-response,207,657500,0.0-7.0-5.0-0.9,59,Study 59,Session 59,NA,2858,img/testing_events/Ba/Test_Ba_Event_14.jpg,n,response,n,NA,TRUE,Ba
NA,NA,NA,NA,NA,image-keyboard-response,208,660088,0.0-7.0-5.0-0.10,59,Study 59,Session 59,NA,2587,img/testing_events/Ba/Test_Ba_Event_8.jpg,u,response,u,NA,TRUE,Ba
NA,NA,NA,NA,NA,image-keyboard-response,209,661686,0.0-7.0-5.0-0.11,59,Study 59,Session 59,NA,1596,img/testing_events/Ba/Test_Ba_Event_6.jpg,n,response,n,NA,TRUE,Ba
NA,NA,NA,NA,NA,image-keyboard-response,210,663838,0.0-7.0-5.0-0.12,59,Study 59,Session 59,NA,2151,img/testing_events/Ba/Test_Ba_Event_23.jpg,e,response,e,NA,TRUE,Ba
NA,NA,NA,NA,NA,image-keyboard-response,211,667813,0.0-7.0-5.0-0.13,59,Study 59,Session 59,NA,3973,img/testing_events/Ba/Test_Ba_Event_20.jpg,u,response,u,NA,TRUE,Ba
NA,NA,NA,NA,NA,image-keyboard-response,212,669157,0.0-7.0-5.0-0.14,59,Study 59,Session 59,NA,1343,img/testing_events/Ba/Test_Ba_Event_3.jpg,e,response,e,NA,TRUE,Ba
NA,NA,NA,NA,NA,image-keyboard-response,213,671855,0.0-7.0-5.0-0.15,59,Study 59,Session 59,NA,2697,img/testing_events/Ba/Test_Ba_Event_4.jpg,u,response,u,NA,TRUE,Ba
NA,NA,NA,NA,NA,image-keyboard-response,214,678311,0.0-7.0-5.0-0.16,59,Study 59,Session 59,NA,6454,img/testing_events/Ba/Test_Ba_Event_15.jpg,e,response,e,NA,TRUE,Ba
NA,NA,NA,NA,NA,image-keyboard-response,215,680261,0.0-7.0-5.0-0.17,59,Study 59,Session 59,NA,1949,img/testing_events/Ba/Test_Ba_Event_9.jpg,c,response,c,NA,TRUE,Ba
NA,NA,NA,NA,NA,image-keyboard-response,216,686039,0.0-7.0-5.0-0.18,59,Study 59,Session 59,NA,5776,img/testing_events/Ba/Test_Ba_Event_2.jpg,n,response,n,NA,TRUE,Ba
NA,NA,NA,NA,NA,image-keyboard-response,217,688978,0.0-7.0-5.0-0.19,59,Study 59,Session 59,NA,2938,img/testing_events/Ba/Test_Ba_Event_18.jpg,n,response,n,NA,TRUE,Ba
NA,NA,NA,NA,NA,image-keyboard-response,218,693678,0.0-7.0-5.0-0.20,59,Study 59,Session 59,NA,4699,img/testing_events/Ba/Test_Ba_Event_10.jpg,n,response,n,NA,TRUE,Ba
NA,NA,NA,NA,NA,image-keyboard-response,219,696747,0.0-7.0-5.0-0.21,59,Study 59,Session 59,NA,3068,img/testing_events/Ba/Test_Ba_Event_1.jpg,c,response,c,NA,TRUE,Ba
NA,NA,NA,NA,NA,image-keyboard-response,220,698824,0.0-7.0-5.0-0.22,59,Study 59,Session 59,NA,2076,img/testing_events/Ba/Test_Ba_Event_16.jpg,u,response,u,NA,TRUE,Ba
NA,NA,NA,NA,NA,image-keyboard-response,221,703157,0.0-7.0-5.0-0.23,59,Study 59,Session 59,NA,4332,img/testing_events/Ba/Test_Ba_Event_13.jpg,c,response,c,NA,TRUE,Ba
NA,NA,NA,NA,NA,survey-text,222,734496,0.0-8.0,59,Study 59,Session 59,NA,31324,NA,"{""Q0"":""No."",""Q1"":""No."",""Q2"":""No.""}",NA,NA,NA,NA,NA
NA,NA,NA,NA,NA,survey-html-form,223,763078,0.0-9.0,59,Study 59,Session 59,NA,28579,NA,"{""Gender"":""Female"",""Age"":""22"",""ColorBlind"":""No"",""Education"":""Some College, no degree"",""Income"":""$25,000-$49,999"",""Race"":""White"",""Fluent"":""Yes"",""AgeEnglish"":""0"",""Country"":""United States""}",NA,NA,NA,NA,NA
TRUE,NA,NA,NA,NA,fullscreen,224,763083,0.0-10.0,59,Study 59,Session 59,NA,NA,NA,NA,NA,NA,NA,NA,NA
