success,timeout,failed_images,failed_audio,failed_video,trial_type,trial_index,time_elapsed,internal_node_id,subject_id,study_id,session_id,view_history,rt,stimulus,response,task,correct_response,attention_duration,correct,retrieval_group
TRUE,FALSE,[],[],[],preload,0,2599,0.0-0.0,68,Study 68,Session 68,NA,NA,NA,NA,NA,NA,NA,NA,NA
TRUE,NA,NA,NA,NA,fullscreen,1,6010,0.0-1.0,68,Study 68,Session 68,NA,NA,NA,NA,NA,NA,NA,NA,NA
NA,NA,NA,NA,NA,instructions,2,9745,0.0-2.0,68,Study 68,Session 68,"[{""page_index"":0,""viewing_time"":3734}]",3734,NA,NA,NA,NA,NA,NA,NA
NA,NA,NA,NA,NA,html-keyboard-response,3,31713,0.0-3.0,68,Study 68,Session 68,NA,21966,"Welcome to the experiment. <br /><br />This experiment will take about 20 minutes. Please complete all in one sitting. <br /><br />For this study, <strong>please use</strong> a laptop or desktop computer (not a mobile phone or tablet). Also, please use either <u>Chrome or Firefox</u>. <br /><br />Once you begin, <strong>DO NOT</strong> refresh the browser, as the experiment will reset and you will lose your progress. <br /><br />Press the <strong class=""upperline"">B</strong> key on your keyboard to begin.",b,NA,NA,NA,NA,NA
NA,NA,NA,NA,NA,instructions,4,54546,0.0-4.0,68,Study 68,Session 68,"[{""page_index"":0,""viewing_time"":5896},{""page_index"":1,""viewing_time"":12124},{""page_index"":2,""viewing_time"":3799}]",21820,NA,NA,NA,NA,NA,NA,NA
NA,NA,NA,NA,NA,html-keyboard-response,5,57572,0.0-5.0-0.0,68,Study 68,Session 68,NA,null,"<div style=""font-size:60px;"">+</div>",null,fixation,NA,NA,NA,NA
NA,NA,NA,NA,NA,image-keyboard-response,6,63589,0.0-5.0-1.0,68,Study 68,Session 68,NA,null,img/encoding_events/Event_1.jpg,null,NA,NA,NA,NA,NA
NA,NA,NA,NA,NA,html-keyboard-response,7,63593,0.0-5.0-2.0,68,Study 68,Session 68,NA,null,Please press the <strong><u>f</u></strong> key to continue,null,response,f,0,FALSE,NA
NA,NA,NA,NA,NA,html-keyboard-response,8,64104,0.0-5.0-0.1,68,Study 68,Session 68,NA,null,"<div style=""font-size:60px;"">+</div>",null,fixation,NA,NA,NA,NA
NA,NA,NA,NA,NA,image-keyboard-response,9,70114,0.0-5.0-1.1,68,Study 68,Session 68,NA,null,img/encoding_events/Event_22.jpg,null,NA,NA,NA,NA,NA
NA,NA,NA,NA,NA,html-keyboard-response,10,70120,0.0-5.0-2.1,68,Study 68,Session 68,NA,null,Please press the <strong><u>s</u></strong> key to continue,null,response,s,0,FALSE,NA
NA,NA,NA,NA,NA,html-keyboard-response,11,70628,0.0-5.0-0.2,68,Study 68,Session 68,NA,null,"<div style=""font-size:60px;"">+</div>",null,fixation,NA,NA,NA,NA
NA,NA,NA,NA,NA,image-keyboard-response,12,76631,0.0-5.0-1.2,68,Study 68,Session 68,NA,null,img/encoding_events/Event_2.jpg,null,NA,NA,NA,NA,NA
NA,NA,NA,NA,NA,html-keyboard-response,13,76636,0.0-5.0-2.2,68,Study 68,Session 68,NA,null,Please press the <strong><u>a</u></strong> key to continue,null,response,a,0,FALSE,NA
NA,NA,NA,NA,NA,html-keyboard-response,14,77147,0.0-5.0-0.3,68,Study 68,Session 68,NA,null,"<div style=""font-size:60px;"">+</div>",null,fixation,NA,NA,NA,NA
NA,NA,NA,NA,NA,image-keyboard-response,15,83158,0.0-5.0-1.3,68,Study 68,Session 68,NA,null,img/encoding_events/Event_7.jpg,null,NA,NA,NA,NA,NA
NA,NA,NA,NA,NA,html-keyboard-response,16,85367,0.0-5.0-2.3,68,Study 68,Session 68,NA,2208,Please press the <strong><u>s</u></strong> key to continue,s,response,s,6000,TRUE,NA
NA,NA,NA,NA,NA,html-keyboard-response,17,85882,0.0-5.0-0.4,68,Study 68,Session 68,NA,null,"<div style=""font-size:60px;"">+</div>",null,fixation,NA,NA,NA,NA
NA,NA,NA,NA,NA,image-keyboard-response,18,91893,0.0-5.0-1.4,68,Study 68,Session 68,NA,null,img/encoding_events/Event_6.jpg,null,NA,NA,NA,NA,NA
NA,NA,NA,NA,NA,html-keyboard-response,19,91895,0.0-5.0-2.4,68,Study 68,Session 68,NA,null,Please press the <strong><u>f</u></strong> key to continue,null,response,f,0,FALSE,NA
NA,NA,NA,NA,NA,html-keyboard-response,20,92407,0.0-5.0-0.5,68,Study 68,Session 68,NA,null,"<div style=""font-size:60px;"">+</div>",null,fixation,NA,NA,NA,NA
NA,NA,NA,NA,NA,image-keyboard-response,21,98419,0.0-5.0-1.5,68,Study 68,Session 68,NA,null,img/encoding_events/Event_24.jpg,null,NA,NA,NA,NA,NA
NA,NA,NA,NA,NA,html-keyboard-response,22,98424,0.0-5.0-2.5,68,Study 68,Session 68,NA,null,Please press the <strong><u>j</u></strong> key to continue,null,response,j,0,FALSE,NA
NA,NA,NA,NA,NA,html-keyboard-response,23,98937,0.0-5.0-0.6,68,Study 68,Session 68,NA,null,"<div style=""font-size:60px;"">+</div>",null,fixation,NA,NA,NA,NA
NA,NA,NA,NA,NA,image-keyboard-response,24,104943,0.0-5.0-1.6,68,Study 68,Session 68,NA,null,img/encoding_events/Event_23.jpg,null,NA,NA,NA,NA,NA
NA,NA,NA,NA,NA,html-keyboard-response,25,104949,0.0-5.0-2.6,68,Study 68,Session 68,NA,null,Please press the <strong><u>f</u></strong> key to continue,null,response,f,0,FALSE,NA
NA,NA,NA,NA,NA,html-keyboard-response,26,105458,0.0-5.0-0.7,68,Study 68,Session 68,NA,null,"<div style=""font-size:60px;"">+</div>",null,fixation,NA,NA,NA,NA
NA,NA,NA,NA,NA,image-keyboard-response,27,111460,0.0-5.0-1.7,68,Study 68,Session 68,NA,null,img/encoding_events/Event_10.jpg,null,NA,NA,NA,NA,NA
NA,NA,NA,NA,NA,html-keyboard-response,28,115036,0.0-5.0-2.7,68,Study 68,Session 68,NA,3575,Please press the <strong><u>f</u></strong> key to continue,f,response,f,6000,TRUE,NA
NA,NA,NA,NA,NA,html-keyboard-response,29,115546,0.0-5.0-0.8,68,Study 68,Session 68,NA,null,"<div style=""font-size:60px;"">+</div>",null,fixation,NA,NA,NA,NA
NA,NA,NA,NA,NA,image-keyboard-response,30,121564,0.0-5.0-1.8,68,Study 68,Session 68,NA,null,img/encoding_events/Event_15.jpg,null,NA,NA,NA,NA,NA
NA,NA,NA,NA,NA,html-keyboard-response,31,121566,0.0-5.0-2.8,68,Study 68,Session 68,NA,null,Please press the <strong><u>f</u></strong> key to continue,null,response,f,0,FALSE,NA
NA,NA,NA,NA,NA,html-keyboard-response,32,122081,0.0-5.0-0.9,68,Study 68,Session 68,NA,null,"<div style=""font-size:60px;"">+</div>",null,fixation,NA,NA,NA,NA
NA,NA,NA,NA,NA,image-keyboard-response,33,128086,0.0-5.0-1.9,68,Study 68,Session 68,NA,null,img/encoding_events/Event_13.jpg,null,NA,NA,NA,NA,NA
NA,NA,NA,NA,NA,html-keyboard-response,34,128090,0.0-5.0-2.9,68,Study 68,Session 68,NA,null,Please press the <strong><u>d</u></strong> key to continue,null,response,d,0,FALSE,NA
NA,NA,NA,NA,NA,html-keyboard-response,35,128601,0.0-5.0-0.10,68,Study 68,Session 68,NA,null,"<div style=""font-size:60px;"">+</div>",null,fixation,NA,NA,NA,NA
NA,NA,NA,NA,NA,image-keyboard-response,36,134607,0.0-5.0-1.10,68,Study 68,Session 68,NA,null,img/encoding_events/Event_21.jpg,null,NA,NA,NA,NA,NA
NA,NA,NA,NA,NA,html-keyboard-response,37,134612,0.0-5.0-2.10,68,Study 68,Session 68,NA,null,Please press the <strong><u>k</u></strong> key to continue,null,response,k,0,FALSE,NA
NA,NA,NA,NA,NA,html-keyboard-response,38,135121,0.0-5.0-0.11,68,Study 68,Session 68,NA,null,"<div style=""font-size:60px;"">+</div>",null,fixation,NA,NA,NA,NA
NA,NA,NA,NA,NA,image-keyboard-response,39,141128,0.0-5.0-1.11,68,Study 68,Session 68,NA,null,img/encoding_events/Event_12.jpg,null,NA,NA,NA,NA,NA
NA,NA,NA,NA,NA,html-keyboard-response,40,147143,0.0-5.0-2.11,68,Study 68,Session 68,NA,null,Please press the <strong><u>d</u></strong> key to continue,null,response,d,6000,FALSE,NA
NA,NA,NA,NA,NA,html-keyboard-response,41,147659,0.0-5.0-0.12,68,Study 68,Session 68,NA,null,"<div style=""font-size:60px;"">+</div>",null,fixation,NA,NA,NA,NA
NA,NA,NA,NA,NA,image-keyboard-response,42,153667,0.0-5.0-1.12,68,Study 68,Session 68,NA,null,img/encoding_events/Event_20.jpg,null,NA,NA,NA,NA,NA
NA,NA,NA,NA,NA,html-keyboard-response,43,153672,0.0-5.0-2.12,68,Study 68,Session 68,NA,null,Please press the <strong><u>f</u></strong> key to continue,null,response,f,0,FALSE,NA
NA,NA,NA,NA,NA,html-keyboard-response,44,154180,0.0-5.0-0.13,68,Study 68,Session 68,NA,null,"<div style=""font-size:60px;"">+</div>",null,fixation,NA,NA,NA,NA
NA,NA,NA,NA,NA,image-keyboard-response,45,160194,0.0-5.0-1.13,68,Study 68,Session 68,NA,null,img/encoding_events/Event_3.jpg,null,NA,NA,NA,NA,NA
NA,NA,NA,NA,NA,html-keyboard-response,46,160200,0.0-5.0-2.13,68,Study 68,Session 68,NA,null,Please press the <strong><u>s</u></strong> key to continue,null,response,s,0,FALSE,NA
NA,NA,NA,NA,NA,html-keyboard-response,47,160710,0.0-5.0-0.14,68,Study 68,Session 68,NA,null,"<div style=""font-size:60px;"">+</div>",null,fixation,NA,NA,NA,NA
NA,NA,NA,NA,NA,image-keyboard-response,48,166720,0.0-5.0-1.14,68,Study 68,Session 68,NA,null,img/encoding_events/Event_5.jpg,null,NA,NA,NA,NA,NA
NA,NA,NA,NA,NA,html-keyboard-response,49,166726,0.0-5.0-2.14,68,Study 68,Session 68,NA,null,Please press the <strong><u>f</u></strong> key to continue,null,response,f,0,FALSE,NA
NA,NA,NA,NA,NA,html-keyboard-response,50,167235,0.0-5.0-0.15,68,Study 68,Session 68,NA,null,"<div style=""font-size:60px;"">+</div>",null,fixation,NA,NA,NA,NA
NA,NA,NA,NA,NA,image-keyboard-response,51,173242,0.0-5.0-1.15,68,Study 68,Session 68,NA,null,img/encoding_events/Event_18.jpg,null,NA,NA,NA,NA,NA
NA,NA,NA,NA,NA,html-keyboard-response,52,176475,0.0-5.0-2.15,68,Study 68,Session 68,NA,3233,Please press the <strong><u>j</u></strong> key to continue,j,response,j,6000,TRUE,NA
NA,NA,NA,NA,NA,html-keyboard-response,53,176981,0.0-5.0-0.16,68,Study 68,Session 68,NA,null,"<div style=""font-size:60px;"">+</div>",null,fixation,NA,NA,NA,NA
NA,NA,NA,NA,NA,image-keyboard-response,54,182983,0.0-5.0-1.16,68,Study 68,Session 68,NA,null,img/encoding_events/Event_9.jpg,null,NA,NA,NA,NA,NA
NA,NA,NA,NA,NA,html-keyboard-response,55,182985,0.0-5.0-2.16,68,Study 68,Session 68,NA,null,Please press the <strong><u>d</u></strong> key to continue,null,response,d,0,FALSE,NA
NA,NA,NA,NA,NA,html-keyboard-response,56,183497,0.0-5.0-0.17,68,Study 68,Session 68,NA,null,"<div style=""font-size:60px;"">+</div>",null,fixation,NA,NA,NA,NA
NA,NA,NA,NA,NA,image-keyboard-response,57,189512,0.0-5.0-1.17,68,Study 68,Session 68,NA,null,img/encoding_events/Event_16.jpg,null,NA,NA,NA,NA,NA
NA,NA,NA,NA,NA,html-keyboard-response,58,189516,0.0-5.0-2.17,68,Study 68,Session 68,NA,null,Please press the <strong><u>a</u></strong> key to continue,null,response,a,0,FALSE,NA
NA,NA,NA,NA,NA,html-keyboard-response,59,190025,0.0-5.0-0.18,68,Study 68,Session 68,NA,null,"<div style=""font-size:60px;"">+</div>",null,fixation,NA,NA,NA,NA
NA,NA,NA,NA,NA,image-keyboard-response,60,196042,0.0-5.0-1.18,68,Study 68,Session 68,NA,null,img/encoding_events/Event_4.jpg,null,NA,NA,NA,NA,NA
NA,NA,NA,NA,NA,html-keyboard-response,61,196047,0.0-5.0-2.18,68,Study 68,Session 68,NA,null,Please press the <strong><u>k</u></strong> key to continue,null,response,k,0,FALSE,NA
NA,NA,NA,NA,NA,html-keyboard-response,62,196556,0.0-5.0-0.19,68,Study 68,Session 68,NA,null,"<div style=""font-size:60px;"">+</div>",null,fixation,NA,NA,NA,NA
NA,NA,NA,NA,NA,image-keyboard-response,63,202564,0.0-5.0-1.19,68,Study 68,Session 68,NA,null,img/encoding_events/Event_11.jpg,null,NA,NA,NA,NA,NA
NA,NA,NA,NA,NA,html-keyboard-response,64,205361,0.0-5.0-2.19,68,Study 68,Session 68,NA,2796,Please press the <strong><u>a</u></strong> key to continue,a,response,a,6000,TRUE,NA
NA,NA,NA,NA,NA,html-keyboard-response,65,205869,0.0-5.0-0.20,68,Study 68,Session 68,NA,null,"<div style=""font-size:60px;"">+</div>",null,fixation,NA,NA,NA,NA
NA,NA,NA,NA,NA,image-keyboard-response,66,211879,0.0-5.0-1.20,68,Study 68,Session 68,NA,null,img/encoding_events/Event_17.jpg,null,NA,NA,NA,NA,NA
NA,NA,NA,NA,NA,html-keyboard-response,67,211881,0.0-5.0-2.20,68,Study 68,Session 68,NA,null,Please press the <strong><u>d</u></strong> key to continue,null,response,d,0,FALSE,NA
NA,NA,NA,NA,NA,html-keyboard-response,68,212383,0.0-5.0-0.21,68,Study 68,Session 68,NA,null,"<div style=""font-size:60px;"">+</div>",null,fixation,NA,NA,NA,NA
NA,NA,NA,NA,NA,image-keyboard-response,69,218391,0.0-5.0-1.21,68,Study 68,Session 68,NA,null,img/encoding_events/Event_19.jpg,null,NA,NA,NA,NA,NA
NA,NA,NA,NA,NA,html-keyboard-response,70,218397,0.0-5.0-2.21,68,Study 68,Session 68,NA,null,Please press the <strong><u>j</u></strong> key to continue,null,response,j,0,FALSE,NA
NA,NA,NA,NA,NA,html-keyboard-response,71,218909,0.0-5.0-0.22,68,Study 68,Session 68,NA,null,"<div style=""font-size:60px;"">+</div>",null,fixation,NA,NA,NA,NA
NA,NA,NA,NA,NA,image-keyboard-response,72,224922,0.0-5.0-1.22,68,Study 68,Session 68,NA,null,img/encoding_events/Event_8.jpg,null,NA,NA,NA,NA,NA
NA,NA,NA,NA,NA,html-keyboard-response,73,224927,0.0-5.0-2.22,68,Study 68,Session 68,NA,null,Please press the <strong><u>a</u></strong> key to continue,null,response,a,0,FALSE,NA
NA,NA,NA,NA,NA,html-keyboard-response,74,225436,0.0-5.0-0.23,68,Study 68,Session 68,NA,null,"<div style=""font-size:60px;"">+</div>",null,fixation,NA,NA,NA,NA
NA,NA,NA,NA,NA,image-keyboard-response,75,231453,0.0-5.0-1.23,68,Study 68,Session 68,NA,null,img/encoding_events/Event_14.jpg,null,NA,NA,NA,NA,NA
NA,NA,NA,NA,NA,html-keyboard-response,76,234949,0.0-5.0-2.23,68,Study 68,Session 68,NA,3496,Please press the <strong><u>f</u></strong> key to continue,f,response,f,6000,TRUE,NA
NA,NA,NA,NA,NA,instructions,77,297463,0.0-6.0,68,Study 68,Session 68,"[{""page_index"":0,""viewing_time"":3132},{""page_index"":1,""viewing_time"":6315},{""page_index"":2,""viewing_time"":9710},{""page_index"":3,""viewing_time"":28311},{""page_index"":4,""viewing_time"":8018},{""page_index"":5,""viewing_time"":5201},{""page_index"":6,""viewing_time"":1827}]",62514,NA,NA,NA,NA,NA,NA,NA
NA,NA,NA,NA,NA,image-keyboard-response,78,303605,0.0-7.0-0.0-0.0,68,Study 68,Session 68,NA,3630,img/testing_events/Cb/Test_Cb_Event_14.jpg,c,response,c,NA,TRUE,Cb
NA,NA,NA,NA,NA,image-keyboard-response,79,305037,0.0-7.0-0.0-0.1,68,Study 68,Session 68,NA,1431,img/testing_events/Cb/Test_Cb_Event_20.jpg,e,response,e,NA,TRUE,Cb
NA,NA,NA,NA,NA,image-keyboard-response,80,309895,0.0-7.0-0.0-0.2,68,Study 68,Session 68,NA,4857,img/testing_events/Cb/Test_Cb_Event_17.jpg,u,response,u,NA,TRUE,Cb
NA,NA,NA,NA,NA,image-keyboard-response,81,313136,0.0-7.0-0.0-0.3,68,Study 68,Session 68,NA,3240,img/testing_events/Cb/Test_Cb_Event_3.jpg,n,response,n,NA,TRUE,Cb
NA,NA,NA,NA,NA,image-keyboard-response,82,318173,0.0-7.0-0.0-0.4,68,Study 68,Session 68,NA,5036,img/testing_events/Cb/Test_Cb_Event_4.jpg,u,response,e,NA,FALSE,Cb
NA,NA,NA,NA,NA,image-keyboard-response,83,324132,0.0-7.0-0.0-0.5,68,Study 68,Session 68,NA,5958,img/testing_events/Cb/Test_Cb_Event_9.jpg,u,response,u,NA,TRUE,Cb
NA,NA,NA,NA,NA,image-keyboard-response,84,327860,0.0-7.0-0.0-0.6,68,Study 68,Session 68,NA,3726,img/testing_events/Cb/Test_Cb_Event_1.jpg,u,response,u,NA,TRUE,Cb
NA,NA,NA,NA,NA,image-keyboard-response,85,331279,0.0-7.0-0.0-0.7,68,Study 68,Session 68,NA,3418,img/testing_events/Cb/Test_Cb_Event_8.jpg,c,response,e,NA,FALSE,Cb
NA,NA,NA,NA,NA,image-keyboard-response,86,332758,0.0-7.0-0.0-0.8,68,Study 68,Session 68,NA,1478,img/testing_events/Cb/Test_Cb_Event_16.jpg,e,response,e,NA,TRUE,Cb
NA,NA,NA,NA,NA,image-keyboard-response,87,337662,0.0-7.0-0.0-0.9,68,Study 68,Session 68,NA,4903,img/testing_events/Cb/Test_Cb_Event_10.jpg,c,response,c,NA,TRUE,Cb
NA,NA,NA,NA,NA,image-keyboard-response,88,341418,0.0-7.0-0.0-0.10,68,Study 68,Session 68,NA,3755,img/testing_events/Cb/Test_Cb_Event_15.jpg,n,response,n,NA,TRUE,Cb
NA,NA,NA,NA,NA,image-keyboard-response,89,344329,0.0-7.0-0.0-0.11,68,Study 68,Session 68,NA,2909,img/testing_events/Cb/Test_Cb_Event_7.jpg,n,response,n,NA,TRUE,Cb
NA,NA,NA,NA,NA,image-keyboard-response,90,349005,0.0-7.0-0.0-0.12,68,Study 68,Session 68,NA,4675,img/testing_events/Cb/Test_Cb_Event_13.jpg,u,response,u,NA,TRUE,Cb
NA,NA,NA,NA,NA,image-keyboard-response,91,352801,0.0-7.0-0.0-0.13,68,Study 68,Session 68,NA,3794,img/testing_events/Cb/Test_Cb_Event_21.jpg,c,response,u,NA,FALSE,Cb
NA,NA,NA,NA,NA,image-keyboard-response,92,357075,0.0-7.0-0.0-0.14,68,Study 68,Session 68,NA,4272,img/testing_events/Cb/Test_Cb_Event_6.jpg,c,response,c,NA,TRUE,Cb
NA,NA,NA,NA,NA,image-keyboard-response,93,361527,0.0-7.0-0.0-0.15,68,Study 68,Session 68,NA,4451,img/testing_events/Cb/Test_Cb_Event_12.jpg,e,response,e,NA,TRUE,Cb
NA,NA,NA,NA,NA,image-keyboard-response,94,364731,0.0-7.0-0.0-0.16,68,Study 68,Session 68,NA,3204,img/testing_events/Cb/Test_Cb_Event_5.jpg,u,response,u,NA,TRUE,Cb
NA,NA,NA,NA,NA,image-keyboard-response,95,368183,0.0-7.0-0.0-0.17,68,Study 68,Session 68,NA,3450,img/testing_events/Cb/Test_Cb_Event_11.jpg,n,response,n,NA,TRUE,Cb
NA,NA,NA,NA,NA,image-keyboard-response,96,370831,0.0-7.0-0.0-0.18,68,Study 68,Session 68,NA,2647,img/testing_events/Cb/Test_Cb_Event_24.jpg,e,response,e,NA,TRUE,Cb
NA,NA,NA,NA,NA,image-keyboard-response,97,375295,0.0-7.0-0.0-0.19,68,Study 68,Session 68,NA,4463,img/testing_events/Cb/Test_Cb_Event_19.jpg,e,response,n,NA,FALSE,Cb
NA,NA,NA,NA,NA,image-keyboard-response,98,379340,0.0-7.0-0.0-0.20,68,Study 68,Session 68,NA,4044,img/testing_events/Cb/Test_Cb_Event_23.jpg,n,response,n,NA,TRUE,Cb
NA,NA,NA,NA,NA,image-keyboard-response,99,383084,0.0-7.0-0.0-0.21,68,Study 68,Session 68,NA,3742,img/testing_events/Cb/Test_Cb_Event_2.jpg,n,response,c,NA,FALSE,Cb
NA,NA,NA,NA,NA,image-keyboard-response,100,388941,0.0-7.0-0.0-0.22,68,Study 68,Session 68,NA,5856,img/testing_events/Cb/Test_Cb_Event_22.jpg,c,response,c,NA,TRUE,Cb
NA,NA,NA,NA,NA,image-keyboard-response,101,393554,0.0-7.0-0.0-0.23,68,Study 68,Session 68,NA,4612,img/testing_events/Cb/Test_Cb_Event_18.jpg,u,response,c,NA,FALSE,Cb
NA,NA,NA,NA,NA,image-keyboard-response,102,396782,0.0-7.0-1.0-0.0,68,Study 68,Session 68,NA,3227,img/testing_events/Ac/Test_Ac_Event_4.jpg,e,response,e,NA,TRUE,Ac
NA,NA,NA,NA,NA,image-keyboard-response,103,402333,0.0-7.0-1.0-0.1,68,Study 68,Session 68,NA,5551,img/testing_events/Ac/Test_Ac_Event_5.jpg,u,response,u,NA,TRUE,Ac
NA,NA,NA,NA,NA,image-keyboard-response,104,403936,0.0-7.0-1.0-0.2,68,Study 68,Session 68,NA,1602,img/testing_events/Ac/Test_Ac_Event_11.jpg,n,response,n,NA,TRUE,Ac
NA,NA,NA,NA,NA,image-keyboard-response,105,407117,0.0-7.0-1.0-0.3,68,Study 68,Session 68,NA,3180,img/testing_events/Ac/Test_Ac_Event_12.jpg,u,response,e,NA,FALSE,Ac
NA,NA,NA,NA,NA,image-keyboard-response,106,410292,0.0-7.0-1.0-0.4,68,Study 68,Session 68,NA,3174,img/testing_events/Ac/Test_Ac_Event_18.jpg,c,response,c,NA,TRUE,Ac
NA,NA,NA,NA,NA,image-keyboard-response,107,413937,0.0-7.0-1.0-0.5,68,Study 68,Session 68,NA,3643,img/testing_events/Ac/Test_Ac_Event_2.jpg,u,response,c,NA,FALSE,Ac
NA,NA,NA,NA,NA,image-keyboard-response,108,417438,0.0-7.0-1.0-0.6,68,Study 68,Session 68,NA,3500,img/testing_events/Ac/Test_Ac_Event_21.jpg,c,response,u,NA,FALSE,Ac
NA,NA,NA,NA,NA,image-keyboard-response,109,420317,0.0-7.0-1.0-0.7,68,Study 68,Session 68,NA,2877,img/testing_events/Ac/Test_Ac_Event_7.jpg,n,response,n,NA,TRUE,Ac
NA,NA,NA,NA,NA,image-keyboard-response,110,426414,0.0-7.0-1.0-0.8,68,Study 68,Session 68,NA,6095,img/testing_events/Ac/Test_Ac_Event_14.jpg,c,response,c,NA,TRUE,Ac
NA,NA,NA,NA,NA,image-keyboard-response,111,430888,0.0-7.0-1.0-0.9,68,Study 68,Session 68,NA,4473,img/testing_events/Ac/Test_Ac_Event_9.jpg,u,response,u,NA,TRUE,Ac
NA,NA,NA,NA,NA,image-keyboard-response,112,435641,0.0-7.0-1.0-0.10,68,Study 68,Session 68,NA,4752,img/testing_events/Ac/Test_Ac_Event_6.jpg,c,response,c,NA,TRUE,Ac
NA,NA,NA,NA,NA,image-keyboard-response,113,440209,0.0-7.0-1.0-0.11,68,Study 68,Session 68,NA,4567,img/testing_events/Ac/Test_Ac_Event_8.jpg,u,response,e,NA,FALSE,Ac
NA,NA,NA,NA,NA,image-keyboard-response,114,442432,0.0-7.0-1.0-0.12,68,Study 68,Session 68,NA,2222,img/testing_events/Ac/Test_Ac_Event_16.jpg,e,response,e,NA,TRUE,Ac
NA,NA,NA,NA,NA,image-keyboard-response,115,449119,0.0-7.0-1.0-0.13,68,Study 68,Session 68,NA,6686,img/testing_events/Ac/Test_Ac_Event_24.jpg,n,response,e,NA,FALSE,Ac
NA,NA,NA,NA,NA,image-keyboard-response,116,454665,0.0-7.0-1.0-0.14,68,Study 68,Session 68,NA,5546,img/testing_events/Ac/Test_Ac_Event_23.jpg,e,response,n,NA,FALSE,Ac
NA,NA,NA,NA,NA,image-keyboard-response,117,456260,0.0-7.0-1.0-0.15,68,Study 68,Session 68,NA,1594,img/testing_events/Ac/Test_Ac_Event_15.jpg,n,response,n,NA,TRUE,Ac
NA,NA,NA,NA,NA,image-keyboard-response,118,458690,0.0-7.0-1.0-0.16,68,Study 68,Session 68,NA,2429,img/testing_events/Ac/Test_Ac_Event_17.jpg,u,response,u,NA,TRUE,Ac
NA,NA,NA,NA,NA,image-keyboard-response,119,461746,0.0-7.0-1.0-0.17,68,Study 68,Session 68,NA,3055,img/testing_events/Ac/Test_Ac_Event_20.jpg,e,response,e,NA,TRUE,Ac
NA,NA,NA,NA,NA,image-keyboard-response,120,464613,0.0-7.0-1.0-0.18,68,Study 68,Session 68,NA,2866,img/testing_events/Ac/Test_Ac_Event_22.jpg,c,response,c,NA,TRUE,Ac
NA,NA,NA,NA,NA,image-keyboard-response,121,466880,0.0-7.0-1.0-0.19,68,Study 68,Session 68,NA,2266,img/testing_events/Ac/Test_Ac_Event_3.jpg,n,response,n,NA,TRUE,Ac
NA,NA,NA,NA,NA,image-keyboard-response,122,471523,0.0-7.0-1.0-0.20,68,Study 68,Session 68,NA,4643,img/testing_events/Ac/Test_Ac_Event_13.jpg,u,response,u,NA,TRUE,Ac
NA,NA,NA,NA,NA,image-keyboard-response,123,473974,0.0-7.0-1.0-0.21,68,Study 68,Session 68,NA,2450,img/testing_events/Ac/Test_Ac_Event_1.jpg,e,response,u,NA,FALSE,Ac
NA,NA,NA,NA,NA,image-keyboard-response,124,476963,0.0-7.0-1.0-0.22,68,Study 68,Session 68,NA,2988,img/testing_events/Ac/Test_Ac_Event_19.jpg,e,response,n,NA,FALSE,Ac
NA,NA,NA,NA,NA,image-keyboard-response,125,479612,0.0-7.0-1.0-0.23,68,Study 68,Session 68,NA,2648,img/testing_events/Ac/Test_Ac_Event_10.jpg,e,response,c,NA,FALSE,Ac
NA,NA,NA,NA,NA,image-keyboard-response,126,484695,0.0-7.0-2.0-0.0,68,Study 68,Session 68,NA,5082,img/testing_events/Ab/Test_Ab_Event_1.jpg,u,response,e,NA,FALSE,Ab
NA,NA,NA,NA,NA,image-keyboard-response,127,489783,0.0-7.0-2.0-0.1,68,Study 68,Session 68,NA,5087,img/testing_events/Ab/Test_Ab_Event_12.jpg,e,response,n,NA,FALSE,Ab
NA,NA,NA,NA,NA,image-keyboard-response,128,491302,0.0-7.0-2.0-0.2,68,Study 68,Session 68,NA,1518,img/testing_events/Ab/Test_Ab_Event_20.jpg,n,response,n,NA,TRUE,Ab
NA,NA,NA,NA,NA,image-keyboard-response,129,492633,0.0-7.0-2.0-0.3,68,Study 68,Session 68,NA,1330,img/testing_events/Ab/Test_Ab_Event_11.jpg,c,response,c,NA,TRUE,Ab
NA,NA,NA,NA,NA,image-keyboard-response,130,494351,0.0-7.0-2.0-0.4,68,Study 68,Session 68,NA,1717,img/testing_events/Ab/Test_Ab_Event_8.jpg,n,response,n,NA,TRUE,Ab
NA,NA,NA,NA,NA,image-keyboard-response,131,499039,0.0-7.0-2.0-0.5,68,Study 68,Session 68,NA,4687,img/testing_events/Ab/Test_Ab_Event_4.jpg,c,response,n,NA,FALSE,Ab
NA,NA,NA,NA,NA,image-keyboard-response,132,501103,0.0-7.0-2.0-0.6,68,Study 68,Session 68,NA,2063,img/testing_events/Ab/Test_Ab_Event_16.jpg,n,response,n,NA,TRUE,Ab
NA,NA,NA,NA,NA,image-keyboard-response,133,503269,0.0-7.0-2.0-0.7,68,Study 68,Session 68,NA,2165,img/testing_events/Ab/Test_Ab_Event_24.jpg,n,response,n,NA,TRUE,Ab
NA,NA,NA,NA,NA,image-keyboard-response,134,504527,0.0-7.0-2.0-0.8,68,Study 68,Session 68,NA,1256,img/testing_events/Ab/Test_Ab_Event_3.jpg,c,response,c,NA,TRUE,Ab
NA,NA,NA,NA,NA,image-keyboard-response,135,506294,0.0-7.0-2.0-0.9,68,Study 68,Session 68,NA,1766,img/testing_events/Ab/Test_Ab_Event_9.jpg,e,response,e,NA,TRUE,Ab
NA,NA,NA,NA,NA,image-keyboard-response,136,507845,0.0-7.0-2.0-0.10,68,Study 68,Session 68,NA,1550,img/testing_events/Ab/Test_Ab_Event_22.jpg,u,response,u,NA,TRUE,Ab
NA,NA,NA,NA,NA,image-keyboard-response,137,509115,0.0-7.0-2.0-0.11,68,Study 68,Session 68,NA,1269,img/testing_events/Ab/Test_Ab_Event_17.jpg,e,response,e,NA,TRUE,Ab
NA,NA,NA,NA,NA,image-keyboard-response,138,510373,0.0-7.0-2.0-0.12,68,Study 68,Session 68,NA,1257,img/testing_events/Ab/Test_Ab_Event_14.jpg,u,response,u,NA,TRUE,Ab
NA,NA,NA,NA,NA,image-keyboard-response,139,513442,0.0-7.0-2.0-0.13,68,Study 68,Session 68,NA,3068,img/testing_events/Ab/Test_Ab_Event_2.jpg,e,response,u,NA,FALSE,Ab
NA,NA,NA,NA,NA,image-keyboard-response,140,516749,0.0-7.0-2.0-0.14,68,Study 68,Session 68,NA,3306,img/testing_events/Ab/Test_Ab_Event_13.jpg,e,response,e,NA,TRUE,Ab
NA,NA,NA,NA,NA,image-keyboard-response,141,520174,0.0-7.0-2.0-0.15,68,Study 68,Session 68,NA,3423,img/testing_events/Ab/Test_Ab_Event_18.jpg,u,response,u,NA,TRUE,Ab
NA,NA,NA,NA,NA,image-keyboard-response,142,521463,0.0-7.0-2.0-0.16,68,Study 68,Session 68,NA,1289,img/testing_events/Ab/Test_Ab_Event_15.jpg,c,response,c,NA,TRUE,Ab
NA,NA,NA,NA,NA,image-keyboard-response,143,524147,0.0-7.0-2.0-0.17,68,Study 68,Session 68,NA,2682,img/testing_events/Ab/Test_Ab_Event_19.jpg,c,response,c,NA,TRUE,Ab
NA,NA,NA,NA,NA,image-keyboard-response,144,526360,0.0-7.0-2.0-0.18,68,Study 68,Session 68,NA,2213,img/testing_events/Ab/Test_Ab_Event_6.jpg,u,response,u,NA,TRUE,Ab
NA,NA,NA,NA,NA,image-keyboard-response,145,528482,0.0-7.0-2.0-0.19,68,Study 68,Session 68,NA,2121,img/testing_events/Ab/Test_Ab_Event_23.jpg,e,response,c,NA,FALSE,Ab
NA,NA,NA,NA,NA,image-keyboard-response,146,535437,0.0-7.0-2.0-0.20,68,Study 68,Session 68,NA,6953,img/testing_events/Ab/Test_Ab_Event_21.jpg,c,response,e,NA,FALSE,Ab
NA,NA,NA,NA,NA,image-keyboard-response,147,538009,0.0-7.0-2.0-0.21,68,Study 68,Session 68,NA,2571,img/testing_events/Ab/Test_Ab_Event_5.jpg,c,response,e,NA,FALSE,Ab
NA,NA,NA,NA,NA,image-keyboard-response,148,540440,0.0-7.0-2.0-0.22,68,Study 68,Session 68,NA,2429,img/testing_events/Ab/Test_Ab_Event_10.jpg,u,response,u,NA,TRUE,Ab
NA,NA,NA,NA,NA,image-keyboard-response,149,543721,0.0-7.0-2.0-0.23,68,Study 68,Session 68,NA,3280,img/testing_events/Ab/Test_Ab_Event_7.jpg,c,response,c,NA,TRUE,Ab
NA,NA,NA,NA,NA,image-keyboard-response,150,547163,0.0-7.0-3.0-0.0,68,Study 68,Session 68,NA,3440,img/testing_events/Bc/Test_Bc_Event_5.jpg,u,response,n,NA,FALSE,Bc
NA,NA,NA,NA,NA,image-keyboard-response,151,548130,0.0-7.0-3.0-0.1,68,Study 68,Session 68,NA,966,img/testing_events/Bc/Test_Bc_Event_11.jpg,u,response,u,NA,TRUE,Bc
NA,NA,NA,NA,NA,image-keyboard-response,152,550416,0.0-7.0-3.0-0.2,68,Study 68,Session 68,NA,2286,img/testing_events/Bc/Test_Bc_Event_4.jpg,c,response,c,NA,TRUE,Bc
NA,NA,NA,NA,NA,image-keyboard-response,153,552213,0.0-7.0-3.0-0.3,68,Study 68,Session 68,NA,1795,img/testing_events/Bc/Test_Bc_Event_19.jpg,u,response,u,NA,TRUE,Bc
NA,NA,NA,NA,NA,image-keyboard-response,154,553216,0.0-7.0-3.0-0.4,68,Study 68,Session 68,NA,1003,img/testing_events/Bc/Test_Bc_Event_22.jpg,e,response,e,NA,TRUE,Bc
NA,NA,NA,NA,NA,image-keyboard-response,155,554440,0.0-7.0-3.0-0.5,68,Study 68,Session 68,NA,1222,img/testing_events/Bc/Test_Bc_Event_20.jpg,c,response,c,NA,TRUE,Bc
NA,NA,NA,NA,NA,image-keyboard-response,156,557007,0.0-7.0-3.0-0.6,68,Study 68,Session 68,NA,2566,img/testing_events/Bc/Test_Bc_Event_2.jpg,n,response,e,NA,FALSE,Bc
NA,NA,NA,NA,NA,image-keyboard-response,157,563066,0.0-7.0-3.0-0.7,68,Study 68,Session 68,NA,6058,img/testing_events/Bc/Test_Bc_Event_21.jpg,c,response,n,NA,FALSE,Bc
NA,NA,NA,NA,NA,image-keyboard-response,158,566154,0.0-7.0-3.0-0.8,68,Study 68,Session 68,NA,3087,img/testing_events/Bc/Test_Bc_Event_24.jpg,c,response,c,NA,TRUE,Bc
NA,NA,NA,NA,NA,image-keyboard-response,159,567128,0.0-7.0-3.0-0.9,68,Study 68,Session 68,NA,972,img/testing_events/Bc/Test_Bc_Event_6.jpg,e,response,e,NA,TRUE,Bc
NA,NA,NA,NA,NA,image-keyboard-response,160,569144,0.0-7.0-3.0-0.10,68,Study 68,Session 68,NA,2016,img/testing_events/Bc/Test_Bc_Event_10.jpg,e,response,e,NA,TRUE,Bc
NA,NA,NA,NA,NA,image-keyboard-response,161,572175,0.0-7.0-3.0-0.11,68,Study 68,Session 68,NA,3030,img/testing_events/Bc/Test_Bc_Event_12.jpg,n,response,c,NA,FALSE,Bc
NA,NA,NA,NA,NA,image-keyboard-response,162,575780,0.0-7.0-3.0-0.12,68,Study 68,Session 68,NA,3603,img/testing_events/Bc/Test_Bc_Event_23.jpg,n,response,u,NA,FALSE,Bc
NA,NA,NA,NA,NA,image-keyboard-response,163,577692,0.0-7.0-3.0-0.13,68,Study 68,Session 68,NA,1912,img/testing_events/Bc/Test_Bc_Event_7.jpg,c,response,u,NA,FALSE,Bc
NA,NA,NA,NA,NA,image-keyboard-response,164,578896,0.0-7.0-3.0-0.14,68,Study 68,Session 68,NA,1203,img/testing_events/Bc/Test_Bc_Event_14.jpg,e,response,e,NA,TRUE,Bc
NA,NA,NA,NA,NA,image-keyboard-response,165,584791,0.0-7.0-3.0-0.15,68,Study 68,Session 68,NA,5894,img/testing_events/Bc/Test_Bc_Event_17.jpg,n,response,n,NA,TRUE,Bc
NA,NA,NA,NA,NA,image-keyboard-response,166,587603,0.0-7.0-3.0-0.16,68,Study 68,Session 68,NA,2811,img/testing_events/Bc/Test_Bc_Event_8.jpg,c,response,c,NA,TRUE,Bc
NA,NA,NA,NA,NA,image-keyboard-response,167,589614,0.0-7.0-3.0-0.17,68,Study 68,Session 68,NA,2010,img/testing_events/Bc/Test_Bc_Event_3.jpg,u,response,u,NA,TRUE,Bc
NA,NA,NA,NA,NA,image-keyboard-response,168,593059,0.0-7.0-3.0-0.18,68,Study 68,Session 68,NA,3444,img/testing_events/Bc/Test_Bc_Event_13.jpg,n,response,n,NA,TRUE,Bc
NA,NA,NA,NA,NA,image-keyboard-response,169,596858,0.0-7.0-3.0-0.19,68,Study 68,Session 68,NA,3797,img/testing_events/Bc/Test_Bc_Event_9.jpg,c,response,n,NA,FALSE,Bc
NA,NA,NA,NA,NA,image-keyboard-response,170,598728,0.0-7.0-3.0-0.20,68,Study 68,Session 68,NA,1868,img/testing_events/Bc/Test_Bc_Event_16.jpg,e,response,c,NA,FALSE,Bc
NA,NA,NA,NA,NA,image-keyboard-response,171,600354,0.0-7.0-3.0-0.21,68,Study 68,Session 68,NA,1625,img/testing_events/Bc/Test_Bc_Event_15.jpg,u,response,u,NA,TRUE,Bc
NA,NA,NA,NA,NA,image-keyboard-response,172,603113,0.0-7.0-3.0-0.22,68,Study 68,Session 68,NA,2758,img/testing_events/Bc/Test_Bc_Event_1.jpg,n,response,n,NA,TRUE,Bc
NA,NA,NA,NA,NA,image-keyboard-response,173,606853,0.0-7.0-3.0-0.23,68,Study 68,Session 68,NA,3740,img/testing_events/Bc/Test_Bc_Event_18.jpg,e,response,e,NA,TRUE,Bc
NA,NA,NA,NA,NA,image-keyboard-response,174,609758,0.0-7.0-4.0-0.0,68,Study 68,Session 68,NA,2903,img/testing_events/Ca/Test_Ca_Event_16.jpg,n,response,n,NA,TRUE,Ca
NA,NA,NA,NA,NA,image-keyboard-response,175,611652,0.0-7.0-4.0-0.1,68,Study 68,Session 68,NA,1893,img/testing_events/Ca/Test_Ca_Event_22.jpg,u,response,u,NA,TRUE,Ca
NA,NA,NA,NA,NA,image-keyboard-response,176,614533,0.0-7.0-4.0-0.2,68,Study 68,Session 68,NA,2880,img/testing_events/Ca/Test_Ca_Event_19.jpg,e,response,c,NA,FALSE,Ca
NA,NA,NA,NA,NA,image-keyboard-response,177,615957,0.0-7.0-4.0-0.3,68,Study 68,Session 68,NA,1423,img/testing_events/Ca/Test_Ca_Event_11.jpg,c,response,c,NA,TRUE,Ca
NA,NA,NA,NA,NA,image-keyboard-response,178,618278,0.0-7.0-4.0-0.4,68,Study 68,Session 68,NA,2320,img/testing_events/Ca/Test_Ca_Event_4.jpg,n,response,n,NA,TRUE,Ca
NA,NA,NA,NA,NA,image-keyboard-response,179,619421,0.0-7.0-4.0-0.5,68,Study 68,Session 68,NA,1142,img/testing_events/Ca/Test_Ca_Event_15.jpg,c,response,c,NA,TRUE,Ca
NA,NA,NA,NA,NA,image-keyboard-response,180,620502,0.0-7.0-4.0-0.6,68,Study 68,Session 68,NA,1080,img/testing_events/Ca/Test_Ca_Event_14.jpg,u,response,u,NA,TRUE,Ca
NA,NA,NA,NA,NA,image-keyboard-response,181,623510,0.0-7.0-4.0-0.7,68,Study 68,Session 68,NA,3006,img/testing_events/Ca/Test_Ca_Event_13.jpg,e,response,e,NA,TRUE,Ca
NA,NA,NA,NA,NA,image-keyboard-response,182,626466,0.0-7.0-4.0-0.8,68,Study 68,Session 68,NA,2955,img/testing_events/Ca/Test_Ca_Event_12.jpg,n,response,n,NA,TRUE,Ca
NA,NA,NA,NA,NA,image-keyboard-response,183,631637,0.0-7.0-4.0-0.9,68,Study 68,Session 68,NA,5170,img/testing_events/Ca/Test_Ca_Event_24.jpg,n,response,n,NA,TRUE,Ca
NA,NA,NA,NA,NA,image-keyboard-response,184,634713,0.0-7.0-4.0-0.10,68,Study 68,Session 68,NA,3075,img/testing_events/Ca/Test_Ca_Event_2.jpg,e,response,u,NA,FALSE,Ca
NA,NA,NA,NA,NA,image-keyboard-response,185,637382,0.0-7.0-4.0-0.11,68,Study 68,Session 68,NA,2668,img/testing_events/Ca/Test_Ca_Event_21.jpg,c,response,e,NA,FALSE,Ca
NA,NA,NA,NA,NA,image-keyboard-response,186,642882,0.0-7.0-4.0-0.12,68,Study 68,Session 68,NA,5499,img/testing_events/Ca/Test_Ca_Event_18.jpg,c,response,u,NA,FALSE,Ca
NA,NA,NA,NA,NA,image-keyboard-response,187,649307,0.0-7.0-4.0-0.13,68,Study 68,Session 68,NA,6424,img/testing_events/Ca/Test_Ca_Event_5.jpg,e,response,e,NA,TRUE,Ca
NA,NA,NA,NA,NA,image-keyboard-response,188,651324,0.0-7.0-4.0-0.14,68,Study 68,Session 68,NA,2016,img/testing_events/Ca/Test_Ca_Event_6.jpg,u,response,u,NA,TRUE,Ca
NA,NA,NA,NA,NA,image-keyboard-response,189,653763,0.0-7.0-4.0-0.15,68,Study 68,Session 68,NA,2438,img/testing_events/Ca/Test_Ca_Event_23.jpg,n,response,c,NA,FALSE,Ca
NA,NA,NA,NA,NA,image-keyboard-response,190,655319,0.0-7.0-4.0-0.16,68,Study 68,Session 68,NA,1555,img/testing_events/Ca/Test_Ca_Event_17.jpg,e,response,e,NA,TRUE,Ca
NA,NA,NA,NA,NA,image-keyboard-response,191,657310,0.0-7.0-4.0-0.17,68,Study 68,Session 68,NA,1990,img/testing_events/Ca/Test_Ca_Event_8.jpg,n,response,n,NA,TRUE,Ca
NA,NA,NA,NA,NA,image-keyboard-response,192,658727,0.0-7.0-4.0-0.18,68,Study 68,Session 68,NA,1416,img/testing_events/Ca/Test_Ca_Event_20.jpg,n,response,n,NA,TRUE,Ca
NA,NA,NA,NA,NA,image-keyboard-response,193,660712,0.0-7.0-4.0-0.19,68,Study 68,Session 68,NA,1984,img/testing_events/Ca/Test_Ca_Event_10.jpg,u,response,u,NA,TRUE,Ca
NA,NA,NA,NA,NA,image-keyboard-response,194,662603,0.0-7.0-4.0-0.20,68,Study 68,Session 68,NA,1890,img/testing_events/Ca/Test_Ca_Event_1.jpg,e,response,e,NA,TRUE,Ca
NA,NA,NA,NA,NA,image-keyboard-response,195,666546,0.0-7.0-4.0-0.21,68,Study 68,Session 68,NA,3942,img/testing_events/Ca/Test_Ca_Event_9.jpg,u,response,e,NA,FALSE,Ca
NA,NA,NA,NA,NA,image-keyboard-response,196,668296,0.0-7.0-4.0-0.22,68,Study 68,Session 68,NA,1749,img/testing_events/Ca/Test_Ca_Event_3.jpg,c,response,c,NA,TRUE,Ca
NA,NA,NA,NA,NA,image-keyboard-response,197,673622,0.0-7.0-4.0-0.23,68,Study 68,Session 68,NA,5325,img/testing_events/Ca/Test_Ca_Event_7.jpg,c,response,c,NA,TRUE,Ca
NA,NA,NA,NA,NA,image-keyboard-response,198,674662,0.0-7.0-5.0-0.0,68,Study 68,Session 68,NA,1039,img/testing_events/Ba/Test_Ba_Event_6.jpg,n,response,n,NA,TRUE,Ba
NA,NA,NA,NA,NA,image-keyboard-response,199,677340,0.0-7.0-5.0-0.1,68,Study 68,Session 68,NA,2674,img/testing_events/Ba/Test_Ba_Event_4.jpg,u,response,u,NA,TRUE,Ba
NA,NA,NA,NA,NA,image-keyboard-response,200,681712,0.0-7.0-5.0-0.2,68,Study 68,Session 68,NA,4371,img/testing_events/Ba/Test_Ba_Event_1.jpg,c,response,c,NA,TRUE,Ba
NA,NA,NA,NA,NA,image-keyboard-response,201,682551,0.0-7.0-5.0-0.3,68,Study 68,Session 68,NA,837,img/testing_events/Ba/Test_Ba_Event_17.jpg,c,response,c,NA,TRUE,Ba
NA,NA,NA,NA,NA,image-keyboard-response,202,686415,0.0-7.0-5.0-0.4,68,Study 68,Session 68,NA,3862,img/testing_events/Ba/Test_Ba_Event_23.jpg,e,response,e,NA,TRUE,Ba
NA,NA,NA,NA,NA,image-keyboard-response,203,687777,0.0-7.0-5.0-0.5,68,Study 68,Session 68,NA,1361,img/testing_events/Ba/Test_Ba_Event_22.jpg,n,response,n,NA,TRUE,Ba
NA,NA,NA,NA,NA,image-keyboard-response,204,691868,0.0-7.0-5.0-0.6,68,Study 68,Session 68,NA,4091,img/testing_events/Ba/Test_Ba_Event_2.jpg,n,response,n,NA,TRUE,Ba
NA,NA,NA,NA,NA,image-keyboard-response,205,694410,0.0-7.0-5.0-0.7,68,Study 68,Session 68,NA,2540,img/testing_events/Ba/Test_Ba_Event_19.jpg,c,response,e,NA,FALSE,Ba
NA,NA,NA,NA,NA,image-keyboard-response,206,697792,0.0-7.0-5.0-0.8,68,Study 68,Session 68,NA,3380,img/testing_events/Ba/Test_Ba_Event_7.jpg,e,response,e,NA,TRUE,Ba
NA,NA,NA,NA,NA,image-keyboard-response,207,698887,0.0-7.0-5.0-0.9,68,Study 68,Session 68,NA,1094,img/testing_events/Ba/Test_Ba_Event_15.jpg,e,response,e,NA,TRUE,Ba
NA,NA,NA,NA,NA,image-keyboard-response,208,700720,0.0-7.0-5.0-0.10,68,Study 68,Session 68,NA,1832,img/testing_events/Ba/Test_Ba_Event_21.jpg,c,response,c,NA,TRUE,Ba
NA,NA,NA,NA,NA,image-keyboard-response,209,704705,0.0-7.0-5.0-0.11,68,Study 68,Session 68,NA,3984,img/testing_events/Ba/Test_Ba_Event_18.jpg,n,response,n,NA,TRUE,Ba
NA,NA,NA,NA,NA,image-keyboard-response,210,706512,0.0-7.0-5.0-0.12,68,Study 68,Session 68,NA,1806,img/testing_events/Ba/Test_Ba_Event_9.jpg,c,response,c,NA,TRUE,Ba
NA,NA,NA,NA,NA,image-keyboard-response,211,708946,0.0-7.0-5.0-0.13,68,Study 68,Session 68,NA,2433,img/testing_events/Ba/Test_Ba_Event_8.jpg,u,response,u,NA,TRUE,Ba
NA,NA,NA,NA,NA,image-keyboard-response,212,710591,0.0-7.0-5.0-0.14,68,Study 68,Session 68,NA,1643,img/testing_events/Ba/Test_Ba_Event_16.jpg,u,response,u,NA,TRUE,Ba
NA,NA,NA,NA,NA,image-keyboard-response,213,713288,0.0-7.0-5.0-0.15,68,Study 68,Session 68,NA,2695,img/testing_events/Ba/Test_Ba_Event_13.jpg,c,response,c,NA,TRUE,Ba
NA,NA,NA,NA,NA,image-keyboard-response,214,717867,0.0-7.0-5.0-0.16,68,Study 68,Session 68,NA,4578,img/testing_events/Ba/Test_Ba_Event_10.jpg,n,response,n,NA,TRUE,Ba
NA,NA,NA,NA,NA,image-keyboard-response,215,721617,0.0-7.0-5.0-0.17,68,Study 68,Session 68,NA,3749,img/testing_events/Ba/Test_Ba_Event_12.jpg,u,response,u,NA,TRUE,Ba
NA,NA,NA,NA,NA,image-keyboard-response,216,723063,0.0-7.0-5.0-0.18,68,Study 68,Session 68,NA,1445,img/testing_events/Ba/Test_Ba_Event_20.jpg,u,response,u,NA,TRUE,Ba
NA,NA,NA,NA,NA,image-keyboard-response,217,727097,0.0-7.0-5.0-0.19,68,Study 68,Session 68,NA,4033,img/testing_events/Ba/Test_Ba_Event_5.jpg,e,response,c,NA,FALSE,Ba
NA,NA,NA,NA,NA,image-keyboard-response,218,729080,0.0-7.0-5.0-0.20,68,Study 68,Session 68,NA,1981,img/testing_events/Ba/Test_Ba_Event_3.jpg,e,response,e,NA,TRUE,Ba
NA,NA,NA,NA,NA,image-keyboard-response,219,730573,0.0-7.0-5.0-0.21,68,Study 68,Session 68,NA,1492,img/testing_events/Ba/Test_Ba_Event_24.jpg,u,response,u,NA,TRUE,Ba
NA,NA,NA,NA,NA,image-keyboard-response,220,731597,0.0-7.0-5.0-0.22,68,Study 68,Session 68,NA,1023,img/testing_events/Ba/Test_Ba_Event_11.jpg,e,response,e,NA,TRUE,Ba
NA,NA,NA,NA,NA,image-keyboard-response,221,732927,0.0-7.0-5.0-0.23,68,Study 68,Session 68,NA,1328,img/testing_events/Ba/Test_Ba_Event_14.jpg,n,response,n,NA,TRUE,Ba
NA,NA,NA,NA,NA,survey-text,222,746013,0.0-8.0,68,Study 68,Session 68,NA,13077,NA,"{""Q0"":""No"",""Q1"":""No"",""Q2"":""No""}",NA,NA,NA,NA,NA
NA,NA,NA,NA,NA,survey-html-form,223,772020,0.0-9.0,68,Study 68,Session 68,NA,26003,NA,"{""Gender"":""Female"",""Age"":""31"",""ColorBlind"":""No"",""Education"":""Graduate degree (Masters, Doctorate, etc.)"",""Income"":""$75,000-$99,999"",""Race"":""White"",""Fluent"":""No"",""AgeEnglish"":""0"",""Country"":""United States""}",NA,NA,NA,NA,NA
TRUE,NA,NA,NA,NA,fullscreen,224,772022,0.0-10.0,68,Study 68,Session 68,NA,NA,NA,NA,NA,NA,NA,NA,NA
