success,timeout,failed_images,failed_audio,failed_video,trial_type,trial_index,time_elapsed,internal_node_id,subject_id,study_id,session_id,view_history,rt,stimulus,response,task,correct_response,attention_duration,correct,retrieval_group
TRUE,FALSE,[],[],[],preload,0,1948,0.0-0.0,69,Study 69,Session 69,NA,NA,NA,NA,NA,NA,NA,NA,NA
TRUE,NA,NA,NA,NA,fullscreen,1,9519,0.0-1.0,69,Study 69,Session 69,NA,NA,NA,NA,NA,NA,NA,NA,NA
NA,NA,NA,NA,NA,instructions,2,15900,0.0-2.0,69,Study 69,Session 69,"[{""page_index"":0,""viewing_time"":6379}]",6379,NA,NA,NA,NA,NA,NA,NA
NA,NA,NA,NA,NA,html-keyboard-response,3,25061,0.0-3.0,69,Study 69,Session 69,NA,9159,"Welcome to the experiment. <br /><br />This experiment will take about 20 minutes. Please complete all in one sitting. <br /><br />For this study, <strong>please use</strong> a laptop or desktop computer (not a mobile phone or tablet). Also, please use either <u>Chrome or Firefox</u>. <br /><br />Once you begin, <strong>DO NOT</strong> refresh the browser, as the experiment will reset and you will lose your progress. <br /><br />Press the <strong class=""upperline"">B</strong> key on your keyboard to begin.",b,NA,NA,NA,NA,NA
NA,NA,NA,NA,NA,instructions,4,44931,0.0-4.0,69,Study 69,Session 69,"[{""page_index"":0,""viewing_time"":5448},{""page_index"":1,""viewing_time"":10618},{""page_index"":2,""viewing_time"":2795}]",18862,NA,NA,NA,NA,NA,NA,NA
NA,NA,NA,NA,NA,html-keyboard-response,5,47948,0.0-5.0-0.0,69,Study 69,Session 69,NA,null,"<div style=""font-size:60px;"">+</div>",null,fixation,NA,NA,NA,NA
NA,NA,NA,NA,NA,image-keyboard-response,6,53963,0.0-5.0-1.0,69,Study 69,Session 69,NA,null,img/encoding_events/Event_10.jpg,null,NA,NA,NA,NA,NA
NA,NA,NA,NA,NA,html-keyboard-response,7,53968,0.0-5.0-2.0,69,Study 69,Session 69,NA,null,Please press the <strong><u>f</u></strong> key to continue,null,response,f,0,FALSE,NA
NA,NA,NA,NA,NA,html-keyboard-response,8,54477,0.0-5.0-0.1,69,Study 69,Session 69,NA,null,"<div style=""font-size:60px;"">+</div>",null,fixation,NA,NA,NA,NA
NA,NA,NA,NA,NA,image-keyboard-response,9,60485,0.0-5.0-1.1,69,Study 69,Session 69,NA,null,img/encoding_events/Event_17.jpg,null,NA,NA,NA,NA,NA
NA,NA,NA,NA,NA,html-keyboard-response,10,60492,0.0-5.0-2.1,69,Study 69,Session 69,NA,null,Please press the <strong><u>k</u></strong> key to continue,null,response,k,0,FALSE,NA
NA,NA,NA,NA,NA,html-keyboard-response,11,61003,0.0-5.0-0.2,69,Study 69,Session 69,NA,null,"<div style=""font-size:60px;"">+</div>",null,fixation,NA,NA,NA,NA
NA,NA,NA,NA,NA,image-keyboard-response,12,67011,0.0-5.0-1.2,69,Study 69,Session 69,NA,null,img/encoding_events/Event_2.jpg,null,NA,NA,NA,NA,NA
NA,NA,NA,NA,NA,html-keyboard-response,13,67017,0.0-5.0-2.2,69,Study 69,Session 69,NA,null,Please press the <strong><u>d</u></strong> key to continue,null,response,d,0,FALSE,NA
NA,NA,NA,NA,NA,html-keyboard-response,14,67528,0.0-5.0-0.3,69,Study 69,Session 69,NA,null,"<div style=""font-size:60px;"">+</div>",null,fixation,NA,NA,NA,NA
NA,NA,NA,NA,NA,image-keyboard-response,15,73537,0.0-5.0-1.3,69,Study 69,Session 69,NA,null,img/encoding_events/Event_13.jpg,null,NA,NA,NA,NA,NA
NA,NA,NA,NA,NA,html-keyboard-response,16,76832,0.0-5.0-2.3,69,Study 69,Session 69,NA,3294,Please press the <strong><u>j</u></strong> key to continue,j,response,j,6000,TRUE,NA
NA,NA,NA,NA,NA,html-keyboard-response,17,77341,0.0-5.0-0.4,69,Study 69,Session 69,NA,null,"<div style=""font-size:60px;"">+</div>",null,fixation,NA,NA,NA,NA
NA,NA,NA,NA,NA,image-keyboard-response,18,83356,0.0-5.0-1.4,69,Study 69,Session 69,NA,null,img/encoding_events/Event_1.jpg,null,NA,NA,NA,NA,NA
NA,NA,NA,NA,NA,html-keyboard-response,19,83359,0.0-5.0-2.4,69,Study 69,Session 69,NA,null,Please press the <strong><u>f</u></strong> key to continue,null,response,f,0,FALSE,NA
NA,NA,NA,NA,NA,html-keyboard-response,20,83875,0.0-5.0-0.5,69,Study 69,Session 69,NA,null,"<div style=""font-size:60px;"">+</div>",null,fixation,NA,NA,NA,NA
NA,NA,NA,NA,NA,image-keyboard-response,21,89880,0.0-5.0-1.5,69,Study 69,Session 69,NA,null,img/encoding_events/Event_22.jpg,null,NA,NA,NA,NA,NA
NA,NA,NA,NA,NA,html-keyboard-response,22,89885,0.0-5.0-2.5,69,Study 69,Session 69,NA,null,Please press the <strong><u>s</u></strong> key to continue,null,response,s,0,FALSE,NA
NA,NA,NA,NA,NA,html-keyboard-response,23,90401,0.0-5.0-0.6,69,Study 69,Session 69,NA,null,"<div style=""font-size:60px;"">+</div>",null,fixation,NA,NA,NA,NA
NA,NA,NA,NA,NA,image-keyboard-response,24,96410,0.0-5.0-1.6,69,Study 69,Session 69,NA,null,img/encoding_events/Event_11.jpg,null,NA,NA,NA,NA,NA
NA,NA,NA,NA,NA,html-keyboard-response,25,96415,0.0-5.0-2.6,69,Study 69,Session 69,NA,null,Please press the <strong><u>j</u></strong> key to continue,null,response,j,0,FALSE,NA
NA,NA,NA,NA,NA,html-keyboard-response,26,96927,0.0-5.0-0.7,69,Study 69,Session 69,NA,null,"<div style=""font-size:60px;"">+</div>",null,fixation,NA,NA,NA,NA
NA,NA,NA,NA,NA,image-keyboard-response,27,102929,0.0-5.0-1.7,69,Study 69,Session 69,NA,null,img/encoding_events/Event_24.jpg,null,NA,NA,NA,NA,NA
NA,NA,NA,NA,NA,html-keyboard-response,28,105159,0.0-5.0-2.7,69,Study 69,Session 69,NA,2228,Please press the <strong><u>s</u></strong> key to continue,s,response,s,6000,TRUE,NA
NA,NA,NA,NA,NA,html-keyboard-response,29,105660,0.0-5.0-0.8,69,Study 69,Session 69,NA,null,"<div style=""font-size:60px;"">+</div>",null,fixation,NA,NA,NA,NA
NA,NA,NA,NA,NA,image-keyboard-response,30,111670,0.0-5.0-1.8,69,Study 69,Session 69,NA,null,img/encoding_events/Event_5.jpg,null,NA,NA,NA,NA,NA
NA,NA,NA,NA,NA,html-keyboard-response,31,111673,0.0-5.0-2.8,69,Study 69,Session 69,NA,null,Please press the <strong><u>d</u></strong> key to continue,null,response,d,0,FALSE,NA
NA,NA,NA,NA,NA,html-keyboard-response,32,112181,0.0-5.0-0.9,69,Study 69,Session 69,NA,null,"<div style=""font-size:60px;"">+</div>",null,fixation,NA,NA,NA,NA
NA,NA,NA,NA,NA,image-keyboard-response,33,118196,0.0-5.0-1.9,69,Study 69,Session 69,NA,null,img/encoding_events/Event_14.jpg,null,NA,NA,NA,NA,NA
NA,NA,NA,NA,NA,html-keyboard-response,34,118201,0.0-5.0-2.9,69,Study 69,Session 69,NA,null,Please press the <strong><u>a</u></strong> key to continue,null,response,a,0,FALSE,NA
NA,NA,NA,NA,NA,html-keyboard-response,35,118718,0.0-5.0-0.10,69,Study 69,Session 69,NA,null,"<div style=""font-size:60px;"">+</div>",null,fixation,NA,NA,NA,NA
NA,NA,NA,NA,NA,image-keyboard-response,36,124728,0.0-5.0-1.10,69,Study 69,Session 69,NA,null,img/encoding_events/Event_7.jpg,null,NA,NA,NA,NA,NA
NA,NA,NA,NA,NA,html-keyboard-response,37,124734,0.0-5.0-2.10,69,Study 69,Session 69,NA,null,Please press the <strong><u>j</u></strong> key to continue,null,response,j,0,FALSE,NA
NA,NA,NA,NA,NA,html-keyboard-response,38,125245,0.0-5.0-0.11,69,Study 69,Session 69,NA,null,"<div style=""font-size:60px;"">+</div>",null,fixation,NA,NA,NA,NA
NA,NA,NA,NA,NA,image-keyboard-response,39,131254,0.0-5.0-1.11,69,Study 69,Session 69,NA,null,img/encoding_events/Event_8.jpg,null,NA,NA,NA,NA,NA
NA,NA,NA,NA,NA,html-keyboard-response,40,133572,0.0-5.0-2.11,69,Study 69,Session 69,NA,2317,Please press the <strong><u>a</u></strong> key to continue,a,response,a,6000,TRUE,NA
NA,NA,NA,NA,NA,html-keyboard-response,41,134078,0.0-5.0-0.12,69,Study 69,Session 69,NA,null,"<div style=""font-size:60px;"">+</div>",null,fixation,NA,NA,NA,NA
NA,NA,NA,NA,NA,image-keyboard-response,42,140093,0.0-5.0-1.12,69,Study 69,Session 69,NA,null,img/encoding_events/Event_15.jpg,null,NA,NA,NA,NA,NA
NA,NA,NA,NA,NA,html-keyboard-response,43,140096,0.0-5.0-2.12,69,Study 69,Session 69,NA,null,Please press the <strong><u>k</u></strong> key to continue,null,response,k,0,FALSE,NA
NA,NA,NA,NA,NA,html-keyboard-response,44,140610,0.0-5.0-0.13,69,Study 69,Session 69,NA,null,"<div style=""font-size:60px;"">+</div>",null,fixation,NA,NA,NA,NA
NA,NA,NA,NA,NA,image-keyboard-response,45,146620,0.0-5.0-1.13,69,Study 69,Session 69,NA,null,img/encoding_events/Event_12.jpg,null,NA,NA,NA,NA,NA
NA,NA,NA,NA,NA,html-keyboard-response,46,146625,0.0-5.0-2.13,69,Study 69,Session 69,NA,null,Please press the <strong><u>d</u></strong> key to continue,null,response,d,0,FALSE,NA
NA,NA,NA,NA,NA,html-keyboard-response,47,147136,0.0-5.0-0.14,69,Study 69,Session 69,NA,null,"<div style=""font-size:60px;"">+</div>",null,fixation,NA,NA,NA,NA
NA,NA,NA,NA,NA,image-keyboard-response,48,153145,0.0-5.0-1.14,69,Study 69,Session 69,NA,null,img/encoding_events/Event_18.jpg,null,NA,NA,NA,NA,NA
NA,NA,NA,NA,NA,html-keyboard-response,49,153150,0.0-5.0-2.14,69,Study 69,Session 69,NA,null,Please press the <strong><u>j</u></strong> key to continue,null,response,j,0,FALSE,NA
NA,NA,NA,NA,NA,html-keyboard-response,50,153664,0.0-5.0-0.15,69,Study 69,Session 69,NA,null,"<div style=""font-size:60px;"">+</div>",null,fixation,NA,NA,NA,NA
NA,NA,NA,NA,NA,image-keyboard-response,51,159671,0.0-5.0-1.15,69,Study 69,Session 69,NA,null,img/encoding_events/Event_9.jpg,null,NA,NA,NA,NA,NA
NA,NA,NA,NA,NA,html-keyboard-response,52,161834,0.0-5.0-2.15,69,Study 69,Session 69,NA,2162,Please press the <strong><u>k</u></strong> key to continue,k,response,k,6000,TRUE,NA
NA,NA,NA,NA,NA,html-keyboard-response,53,162344,0.0-5.0-0.16,69,Study 69,Session 69,NA,null,"<div style=""font-size:60px;"">+</div>",null,fixation,NA,NA,NA,NA
NA,NA,NA,NA,NA,image-keyboard-response,54,168360,0.0-5.0-1.16,69,Study 69,Session 69,NA,null,img/encoding_events/Event_21.jpg,null,NA,NA,NA,NA,NA
NA,NA,NA,NA,NA,html-keyboard-response,55,168364,0.0-5.0-2.16,69,Study 69,Session 69,NA,null,Please press the <strong><u>k</u></strong> key to continue,null,response,k,0,FALSE,NA
NA,NA,NA,NA,NA,html-keyboard-response,56,168877,0.0-5.0-0.17,69,Study 69,Session 69,NA,null,"<div style=""font-size:60px;"">+</div>",null,fixation,NA,NA,NA,NA
NA,NA,NA,NA,NA,image-keyboard-response,57,174882,0.0-5.0-1.17,69,Study 69,Session 69,NA,null,img/encoding_events/Event_4.jpg,null,NA,NA,NA,NA,NA
NA,NA,NA,NA,NA,html-keyboard-response,58,174887,0.0-5.0-2.17,69,Study 69,Session 69,NA,null,Please press the <strong><u>a</u></strong> key to continue,null,response,a,0,FALSE,NA
NA,NA,NA,NA,NA,html-keyboard-response,59,175402,0.0-5.0-0.18,69,Study 69,Session 69,NA,null,"<div style=""font-size:60px;"">+</div>",null,fixation,NA,NA,NA,NA
NA,NA,NA,NA,NA,image-keyboard-response,60,181412,0.0-5.0-1.18,69,Study 69,Session 69,NA,null,img/encoding_events/Event_3.jpg,null,NA,NA,NA,NA,NA
NA,NA,NA,NA,NA,html-keyboard-response,61,181419,0.0-5.0-2.18,69,Study 69,Session 69,NA,null,Please press the <strong><u>j</u></strong> key to continue,null,response,j,0,FALSE,NA
NA,NA,NA,NA,NA,html-keyboard-response,62,181929,0.0-5.0-0.19,69,Study 69,Session 69,NA,null,"<div style=""font-size:60px;"">+</div>",null,fixation,NA,NA,NA,NA
NA,NA,NA,NA,NA,image-keyboard-response,63,187938,0.0-5.0-1.19,69,Study 69,Session 69,NA,null,img/encoding_events/Event_16.jpg,null,NA,NA,NA,NA,NA
NA,NA,NA,NA,NA,html-keyboard-response,64,190013,0.0-5.0-2.19,69,Study 69,Session 69,NA,2074,Please press the <strong><u>f</u></strong> key to continue,f,response,f,6000,TRUE,NA
NA,NA,NA,NA,NA,html-keyboard-response,65,190529,0.0-5.0-0.20,69,Study 69,Session 69,NA,null,"<div style=""font-size:60px;"">+</div>",null,fixation,NA,NA,NA,NA
NA,NA,NA,NA,NA,image-keyboard-response,66,196545,0.0-5.0-1.20,69,Study 69,Session 69,NA,null,img/encoding_events/Event_20.jpg,null,NA,NA,NA,NA,NA
NA,NA,NA,NA,NA,html-keyboard-response,67,196551,0.0-5.0-2.20,69,Study 69,Session 69,NA,null,Please press the <strong><u>k</u></strong> key to continue,null,response,k,0,FALSE,NA
NA,NA,NA,NA,NA,html-keyboard-response,68,197062,0.0-5.0-0.21,69,Study 69,Session 69,NA,null,"<div style=""font-size:60px;"">+</div>",null,fixation,NA,NA,NA,NA
NA,NA,NA,NA,NA,image-keyboard-response,69,203070,0.0-5.0-1.21,69,Study 69,Session 69,NA,null,img/encoding_events/Event_23.jpg,null,NA,NA,NA,NA,NA
NA,NA,NA,NA,NA,html-keyboard-response,70,203076,0.0-5.0-2.21,69,Study 69,Session 69,NA,null,Please press the <strong><u>k</u></strong> key to continue,null,response,k,0,FALSE,NA
NA,NA,NA,NA,NA,html-keyboard-response,71,203587,0.0-5.0-0.22,69,Study 69,Session 69,NA,null,"<div style=""font-size:60px;"">+</div>",null,fixation,NA,NA,NA,NA
NA,NA,NA,NA,NA,image-keyboard-response,72,209596,0.0-5.0-1.22,69,Study 69,Session 69,NA,null,img/encoding_events/Event_6.jpg,null,NA,NA,NA,NA,NA
NA,NA,NA,NA,NA,html-keyboard-response,73,209602,0.0-5.0-2.22,69,Study 69,Session 69,NA,null,Please press the <strong><u>d</u></strong> key to continue,null,response,d,0,FALSE,NA
NA,NA,NA,NA,NA,html-keyboard-response,74,210113,0.0-5.0-0.23,69,Study 69,Session 69,NA,null,"<div style=""font-size:60px;"">+</div>",null,fixation,NA,NA,NA,NA
NA,NA,NA,NA,NA,image-keyboard-response,75,216122,0.0-5.0-1.23,69,Study 69,Session 69,NA,null,img/encoding_events/Event_19.jpg,null,NA,NA,NA,NA,NA
NA,NA,NA,NA,NA,html-keyboard-response,76,218304,0.0-5.0-2.23,69,Study 69,Session 69,NA,2181,Please press the <strong><u>j</u></strong> key to continue,j,response,j,6000,TRUE,NA
NA,NA,NA,NA,NA,instructions,77,288662,0.0-6.0,69,Study 69,Session 69,"[{""page_index"":0,""viewing_time"":1995},{""page_index"":1,""viewing_time"":6452},{""page_index"":2,""viewing_time"":9385},{""page_index"":3,""viewing_time"":21390},{""page_index"":4,""viewing_time"":10173},{""page_index"":5,""viewing_time"":16954},{""page_index"":6,""viewing_time"":4008}]",70357,NA,NA,NA,NA,NA,NA,NA
NA,NA,NA,NA,NA,image-keyboard-response,78,298179,0.0-7.0-0.0-0.0,69,Study 69,Session 69,NA,7013,img/testing_events/Ca/Test_Ca_Event_14.jpg,u,response,u,NA,TRUE,Ca
NA,NA,NA,NA,NA,image-keyboard-response,79,300447,0.0-7.0-0.0-0.1,69,Study 69,Session 69,NA,2266,img/testing_events/Ca/Test_Ca_Event_6.jpg,c,response,u,NA,FALSE,Ca
NA,NA,NA,NA,NA,image-keyboard-response,80,305118,0.0-7.0-0.0-0.2,69,Study 69,Session 69,NA,4669,img/testing_events/Ca/Test_Ca_Event_20.jpg,n,response,n,NA,TRUE,Ca
NA,NA,NA,NA,NA,image-keyboard-response,81,308478,0.0-7.0-0.0-0.3,69,Study 69,Session 69,NA,3358,img/testing_events/Ca/Test_Ca_Event_1.jpg,e,response,e,NA,TRUE,Ca
NA,NA,NA,NA,NA,image-keyboard-response,82,310003,0.0-7.0-0.0-0.4,69,Study 69,Session 69,NA,1523,img/testing_events/Ca/Test_Ca_Event_4.jpg,e,response,n,NA,FALSE,Ca
NA,NA,NA,NA,NA,image-keyboard-response,83,312392,0.0-7.0-0.0-0.5,69,Study 69,Session 69,NA,2387,img/testing_events/Ca/Test_Ca_Event_15.jpg,e,response,c,NA,FALSE,Ca
NA,NA,NA,NA,NA,image-keyboard-response,84,314316,0.0-7.0-0.0-0.6,69,Study 69,Session 69,NA,1921,img/testing_events/Ca/Test_Ca_Event_5.jpg,n,response,e,NA,FALSE,Ca
NA,NA,NA,NA,NA,image-keyboard-response,85,317538,0.0-7.0-0.0-0.7,69,Study 69,Session 69,NA,3225,img/testing_events/Ca/Test_Ca_Event_8.jpg,n,response,n,NA,TRUE,Ca
NA,NA,NA,NA,NA,image-keyboard-response,86,320128,0.0-7.0-0.0-0.8,69,Study 69,Session 69,NA,2587,img/testing_events/Ca/Test_Ca_Event_7.jpg,u,response,c,NA,FALSE,Ca
NA,NA,NA,NA,NA,image-keyboard-response,87,322489,0.0-7.0-0.0-0.9,69,Study 69,Session 69,NA,2359,img/testing_events/Ca/Test_Ca_Event_18.jpg,n,response,u,NA,FALSE,Ca
NA,NA,NA,NA,NA,image-keyboard-response,88,324602,0.0-7.0-0.0-0.10,69,Study 69,Session 69,NA,2111,img/testing_events/Ca/Test_Ca_Event_12.jpg,u,response,n,NA,FALSE,Ca
NA,NA,NA,NA,NA,image-keyboard-response,89,345955,0.0-7.0-0.0-0.11,69,Study 69,Session 69,NA,21350,img/testing_events/Ca/Test_Ca_Event_13.jpg,e,response,e,NA,TRUE,Ca
NA,NA,NA,NA,NA,image-keyboard-response,90,357420,0.0-7.0-0.0-0.12,69,Study 69,Session 69,NA,11463,img/testing_events/Ca/Test_Ca_Event_16.jpg,n,response,n,NA,TRUE,Ca
NA,NA,NA,NA,NA,image-keyboard-response,91,365318,0.0-7.0-0.0-0.13,69,Study 69,Session 69,NA,7894,img/testing_events/Ca/Test_Ca_Event_17.jpg,u,response,e,NA,FALSE,Ca
NA,NA,NA,NA,NA,image-keyboard-response,92,369001,0.0-7.0-0.0-0.14,69,Study 69,Session 69,NA,3681,img/testing_events/Ca/Test_Ca_Event_23.jpg,c,response,c,NA,TRUE,Ca
NA,NA,NA,NA,NA,image-keyboard-response,93,374949,0.0-7.0-0.0-0.15,69,Study 69,Session 69,NA,5946,img/testing_events/Ca/Test_Ca_Event_22.jpg,n,response,u,NA,FALSE,Ca
NA,NA,NA,NA,NA,image-keyboard-response,94,381495,0.0-7.0-0.0-0.16,69,Study 69,Session 69,NA,6552,img/testing_events/Ca/Test_Ca_Event_24.jpg,u,response,n,NA,FALSE,Ca
NA,NA,NA,NA,NA,image-keyboard-response,95,384470,0.0-7.0-0.0-0.17,69,Study 69,Session 69,NA,2972,img/testing_events/Ca/Test_Ca_Event_10.jpg,n,response,u,NA,FALSE,Ca
NA,NA,NA,NA,NA,image-keyboard-response,96,392851,0.0-7.0-0.0-0.18,69,Study 69,Session 69,NA,8379,img/testing_events/Ca/Test_Ca_Event_11.jpg,c,response,c,NA,TRUE,Ca
NA,NA,NA,NA,NA,image-keyboard-response,97,397955,0.0-7.0-0.0-0.19,69,Study 69,Session 69,NA,5102,img/testing_events/Ca/Test_Ca_Event_2.jpg,n,response,u,NA,FALSE,Ca
NA,NA,NA,NA,NA,image-keyboard-response,98,401728,0.0-7.0-0.0-0.20,69,Study 69,Session 69,NA,3771,img/testing_events/Ca/Test_Ca_Event_9.jpg,e,response,e,NA,TRUE,Ca
NA,NA,NA,NA,NA,image-keyboard-response,99,407738,0.0-7.0-0.0-0.21,69,Study 69,Session 69,NA,6008,img/testing_events/Ca/Test_Ca_Event_19.jpg,c,response,c,NA,TRUE,Ca
NA,NA,NA,NA,NA,image-keyboard-response,100,411809,0.0-7.0-0.0-0.22,69,Study 69,Session 69,NA,4069,img/testing_events/Ca/Test_Ca_Event_21.jpg,e,response,e,NA,TRUE,Ca
NA,NA,NA,NA,NA,image-keyboard-response,101,414850,0.0-7.0-0.0-0.23,69,Study 69,Session 69,NA,3038,img/testing_events/Ca/Test_Ca_Event_3.jpg,c,response,c,NA,TRUE,Ca
NA,NA,NA,NA,NA,image-keyboard-response,102,421589,0.0-7.0-1.0-0.0,69,Study 69,Session 69,NA,6737,img/testing_events/Ab/Test_Ab_Event_21.jpg,e,response,e,NA,TRUE,Ab
NA,NA,NA,NA,NA,image-keyboard-response,103,424005,0.0-7.0-1.0-0.1,69,Study 69,Session 69,NA,2413,img/testing_events/Ab/Test_Ab_Event_12.jpg,n,response,n,NA,TRUE,Ab
NA,NA,NA,NA,NA,image-keyboard-response,104,428436,0.0-7.0-1.0-0.2,69,Study 69,Session 69,NA,4429,img/testing_events/Ab/Test_Ab_Event_9.jpg,e,response,e,NA,TRUE,Ab
NA,NA,NA,NA,NA,image-keyboard-response,105,440658,0.0-7.0-1.0-0.3,69,Study 69,Session 69,NA,12219,img/testing_events/Ab/Test_Ab_Event_13.jpg,u,response,e,NA,FALSE,Ab
NA,NA,NA,NA,NA,image-keyboard-response,106,452001,0.0-7.0-1.0-0.4,69,Study 69,Session 69,NA,11329,img/testing_events/Ab/Test_Ab_Event_14.jpg,u,response,u,NA,TRUE,Ab
NA,NA,NA,NA,NA,image-keyboard-response,107,456604,0.0-7.0-1.0-0.5,69,Study 69,Session 69,NA,4600,img/testing_events/Ab/Test_Ab_Event_6.jpg,u,response,u,NA,TRUE,Ab
NA,NA,NA,NA,NA,image-keyboard-response,108,460849,0.0-7.0-1.0-0.6,69,Study 69,Session 69,NA,4243,img/testing_events/Ab/Test_Ab_Event_24.jpg,n,response,n,NA,TRUE,Ab
NA,NA,NA,NA,NA,image-keyboard-response,109,465871,0.0-7.0-1.0-0.7,69,Study 69,Session 69,NA,5019,img/testing_events/Ab/Test_Ab_Event_19.jpg,c,response,c,NA,TRUE,Ab
NA,NA,NA,NA,NA,image-keyboard-response,110,468949,0.0-7.0-1.0-0.8,69,Study 69,Session 69,NA,3076,img/testing_events/Ab/Test_Ab_Event_16.jpg,n,response,n,NA,TRUE,Ab
NA,NA,NA,NA,NA,image-keyboard-response,111,482509,0.0-7.0-1.0-0.9,69,Study 69,Session 69,NA,13558,img/testing_events/Ab/Test_Ab_Event_1.jpg,u,response,e,NA,FALSE,Ab
NA,NA,NA,NA,NA,image-keyboard-response,112,487661,0.0-7.0-1.0-0.10,69,Study 69,Session 69,NA,5150,img/testing_events/Ab/Test_Ab_Event_22.jpg,n,response,u,NA,FALSE,Ab
NA,NA,NA,NA,NA,image-keyboard-response,113,492187,0.0-7.0-1.0-0.11,69,Study 69,Session 69,NA,4524,img/testing_events/Ab/Test_Ab_Event_20.jpg,n,response,n,NA,TRUE,Ab
NA,NA,NA,NA,NA,image-keyboard-response,114,546220,0.0-7.0-1.0-0.12,69,Study 69,Session 69,NA,54036,img/testing_events/Ab/Test_Ab_Event_7.jpg,e,response,c,NA,FALSE,Ab
NA,NA,NA,NA,NA,image-keyboard-response,115,555356,0.0-7.0-1.0-0.13,69,Study 69,Session 69,NA,9135,img/testing_events/Ab/Test_Ab_Event_10.jpg,c,response,u,NA,FALSE,Ab
NA,NA,NA,NA,NA,image-keyboard-response,116,566065,0.0-7.0-1.0-0.14,69,Study 69,Session 69,NA,10706,img/testing_events/Ab/Test_Ab_Event_2.jpg,u,response,u,NA,TRUE,Ab
NA,NA,NA,NA,NA,image-keyboard-response,117,569069,0.0-7.0-1.0-0.15,69,Study 69,Session 69,NA,3002,img/testing_events/Ab/Test_Ab_Event_15.jpg,c,response,c,NA,TRUE,Ab
NA,NA,NA,NA,NA,image-keyboard-response,118,580081,0.0-7.0-1.0-0.16,69,Study 69,Session 69,NA,11010,img/testing_events/Ab/Test_Ab_Event_4.jpg,e,response,n,NA,FALSE,Ab
NA,NA,NA,NA,NA,image-keyboard-response,119,586953,0.0-7.0-1.0-0.17,69,Study 69,Session 69,NA,6871,img/testing_events/Ab/Test_Ab_Event_18.jpg,u,response,u,NA,TRUE,Ab
NA,NA,NA,NA,NA,image-keyboard-response,120,589048,0.0-7.0-1.0-0.18,69,Study 69,Session 69,NA,2093,img/testing_events/Ab/Test_Ab_Event_17.jpg,e,response,e,NA,TRUE,Ab
NA,NA,NA,NA,NA,image-keyboard-response,121,592117,0.0-7.0-1.0-0.19,69,Study 69,Session 69,NA,3067,img/testing_events/Ab/Test_Ab_Event_11.jpg,c,response,c,NA,TRUE,Ab
NA,NA,NA,NA,NA,image-keyboard-response,122,593950,0.0-7.0-1.0-0.20,69,Study 69,Session 69,NA,1832,img/testing_events/Ab/Test_Ab_Event_8.jpg,e,response,n,NA,FALSE,Ab
NA,NA,NA,NA,NA,image-keyboard-response,123,597485,0.0-7.0-1.0-0.21,69,Study 69,Session 69,NA,3533,img/testing_events/Ab/Test_Ab_Event_23.jpg,c,response,c,NA,TRUE,Ab
NA,NA,NA,NA,NA,image-keyboard-response,124,600978,0.0-7.0-1.0-0.22,69,Study 69,Session 69,NA,3491,img/testing_events/Ab/Test_Ab_Event_5.jpg,n,response,e,NA,FALSE,Ab
NA,NA,NA,NA,NA,image-keyboard-response,125,603797,0.0-7.0-1.0-0.23,69,Study 69,Session 69,NA,2817,img/testing_events/Ab/Test_Ab_Event_3.jpg,n,response,c,NA,FALSE,Ab
NA,NA,NA,NA,NA,image-keyboard-response,126,611470,0.0-7.0-2.0-0.0,69,Study 69,Session 69,NA,7675,img/testing_events/Cb/Test_Cb_Event_20.jpg,c,response,e,NA,FALSE,Cb
NA,NA,NA,NA,NA,image-keyboard-response,127,618727,0.0-7.0-2.0-0.1,69,Study 69,Session 69,NA,7255,img/testing_events/Cb/Test_Cb_Event_12.jpg,u,response,e,NA,FALSE,Cb
NA,NA,NA,NA,NA,image-keyboard-response,128,623915,0.0-7.0-2.0-0.2,69,Study 69,Session 69,NA,5186,img/testing_events/Cb/Test_Cb_Event_10.jpg,n,response,c,NA,FALSE,Cb
NA,NA,NA,NA,NA,image-keyboard-response,129,627602,0.0-7.0-2.0-0.3,69,Study 69,Session 69,NA,3685,img/testing_events/Cb/Test_Cb_Event_9.jpg,u,response,u,NA,TRUE,Cb
NA,NA,NA,NA,NA,image-keyboard-response,130,633439,0.0-7.0-2.0-0.4,69,Study 69,Session 69,NA,5835,img/testing_events/Cb/Test_Cb_Event_1.jpg,c,response,u,NA,FALSE,Cb
NA,NA,NA,NA,NA,image-keyboard-response,131,638328,0.0-7.0-2.0-0.5,69,Study 69,Session 69,NA,4886,img/testing_events/Cb/Test_Cb_Event_17.jpg,c,response,u,NA,FALSE,Cb
NA,NA,NA,NA,NA,image-keyboard-response,132,641251,0.0-7.0-2.0-0.6,69,Study 69,Session 69,NA,2920,img/testing_events/Cb/Test_Cb_Event_15.jpg,n,response,n,NA,TRUE,Cb
NA,NA,NA,NA,NA,image-keyboard-response,133,644977,0.0-7.0-2.0-0.7,69,Study 69,Session 69,NA,3723,img/testing_events/Cb/Test_Cb_Event_6.jpg,u,response,c,NA,FALSE,Cb
NA,NA,NA,NA,NA,image-keyboard-response,134,648651,0.0-7.0-2.0-0.8,69,Study 69,Session 69,NA,3672,img/testing_events/Cb/Test_Cb_Event_21.jpg,u,response,u,NA,TRUE,Cb
NA,NA,NA,NA,NA,image-keyboard-response,135,652977,0.0-7.0-2.0-0.9,69,Study 69,Session 69,NA,4324,img/testing_events/Cb/Test_Cb_Event_5.jpg,u,response,u,NA,TRUE,Cb
NA,NA,NA,NA,NA,image-keyboard-response,136,655985,0.0-7.0-2.0-0.10,69,Study 69,Session 69,NA,3006,img/testing_events/Cb/Test_Cb_Event_3.jpg,n,response,n,NA,TRUE,Cb
NA,NA,NA,NA,NA,image-keyboard-response,137,660305,0.0-7.0-2.0-0.11,69,Study 69,Session 69,NA,4318,img/testing_events/Cb/Test_Cb_Event_16.jpg,u,response,e,NA,FALSE,Cb
NA,NA,NA,NA,NA,image-keyboard-response,138,665314,0.0-7.0-2.0-0.12,69,Study 69,Session 69,NA,5007,img/testing_events/Cb/Test_Cb_Event_4.jpg,e,response,e,NA,TRUE,Cb
NA,NA,NA,NA,NA,image-keyboard-response,139,669852,0.0-7.0-2.0-0.13,69,Study 69,Session 69,NA,4536,img/testing_events/Cb/Test_Cb_Event_19.jpg,c,response,n,NA,FALSE,Cb
NA,NA,NA,NA,NA,image-keyboard-response,140,673450,0.0-7.0-2.0-0.14,69,Study 69,Session 69,NA,3586,img/testing_events/Cb/Test_Cb_Event_13.jpg,u,response,u,NA,TRUE,Cb
NA,NA,NA,NA,NA,image-keyboard-response,141,676268,0.0-7.0-2.0-0.15,69,Study 69,Session 69,NA,2816,img/testing_events/Cb/Test_Cb_Event_14.jpg,c,response,c,NA,TRUE,Cb
NA,NA,NA,NA,NA,image-keyboard-response,142,680336,0.0-7.0-2.0-0.16,69,Study 69,Session 69,NA,4067,img/testing_events/Cb/Test_Cb_Event_11.jpg,u,response,n,NA,FALSE,Cb
NA,NA,NA,NA,NA,image-keyboard-response,143,684811,0.0-7.0-2.0-0.17,69,Study 69,Session 69,NA,4473,img/testing_events/Cb/Test_Cb_Event_24.jpg,n,response,e,NA,FALSE,Cb
NA,NA,NA,NA,NA,image-keyboard-response,144,688511,0.0-7.0-2.0-0.18,69,Study 69,Session 69,NA,3696,img/testing_events/Cb/Test_Cb_Event_2.jpg,c,response,c,NA,TRUE,Cb
NA,NA,NA,NA,NA,image-keyboard-response,145,691416,0.0-7.0-2.0-0.19,69,Study 69,Session 69,NA,2903,img/testing_events/Cb/Test_Cb_Event_23.jpg,n,response,n,NA,TRUE,Cb
NA,NA,NA,NA,NA,image-keyboard-response,146,695488,0.0-7.0-2.0-0.20,69,Study 69,Session 69,NA,4071,img/testing_events/Cb/Test_Cb_Event_8.jpg,e,response,e,NA,TRUE,Cb
NA,NA,NA,NA,NA,image-keyboard-response,147,699496,0.0-7.0-2.0-0.21,69,Study 69,Session 69,NA,4006,img/testing_events/Cb/Test_Cb_Event_18.jpg,c,response,c,NA,TRUE,Cb
NA,NA,NA,NA,NA,image-keyboard-response,148,702195,0.0-7.0-2.0-0.22,69,Study 69,Session 69,NA,2696,img/testing_events/Cb/Test_Cb_Event_22.jpg,c,response,c,NA,TRUE,Cb
NA,NA,NA,NA,NA,image-keyboard-response,149,702359,0.0-7.0-2.0-0.23,69,Study 69,Session 69,NA,162,img/testing_events/Cb/Test_Cb_Event_7.jpg,e,response,n,NA,FALSE,Cb
NA,NA,NA,NA,NA,image-keyboard-response,150,711063,0.0-7.0-3.0-0.0,69,Study 69,Session 69,NA,8701,img/testing_events/Ac/Test_Ac_Event_21.jpg,u,response,u,NA,TRUE,Ac
NA,NA,NA,NA,NA,image-keyboard-response,151,712684,0.0-7.0-3.0-0.1,69,Study 69,Session 69,NA,1618,img/testing_events/Ac/Test_Ac_Event_7.jpg,c,response,n,NA,FALSE,Ac
NA,NA,NA,NA,NA,image-keyboard-response,152,714136,0.0-7.0-3.0-0.2,69,Study 69,Session 69,NA,1450,img/testing_events/Ac/Test_Ac_Event_1.jpg,n,response,u,NA,FALSE,Ac
NA,NA,NA,NA,NA,image-keyboard-response,153,715893,0.0-7.0-3.0-0.3,69,Study 69,Session 69,NA,1755,img/testing_events/Ac/Test_Ac_Event_2.jpg,n,response,c,NA,FALSE,Ac
NA,NA,NA,NA,NA,image-keyboard-response,154,718817,0.0-7.0-3.0-0.4,69,Study 69,Session 69,NA,2923,img/testing_events/Ac/Test_Ac_Event_18.jpg,c,response,c,NA,TRUE,Ac
NA,NA,NA,NA,NA,image-keyboard-response,155,721185,0.0-7.0-3.0-0.5,69,Study 69,Session 69,NA,2366,img/testing_events/Ac/Test_Ac_Event_14.jpg,c,response,c,NA,TRUE,Ac
NA,NA,NA,NA,NA,image-keyboard-response,156,724058,0.0-7.0-3.0-0.6,69,Study 69,Session 69,NA,2872,img/testing_events/Ac/Test_Ac_Event_19.jpg,c,response,n,NA,FALSE,Ac
NA,NA,NA,NA,NA,image-keyboard-response,157,726997,0.0-7.0-3.0-0.7,69,Study 69,Session 69,NA,2937,img/testing_events/Ac/Test_Ac_Event_4.jpg,c,response,e,NA,FALSE,Ac
NA,NA,NA,NA,NA,image-keyboard-response,158,729443,0.0-7.0-3.0-0.8,69,Study 69,Session 69,NA,2444,img/testing_events/Ac/Test_Ac_Event_24.jpg,e,response,e,NA,TRUE,Ac
NA,NA,NA,NA,NA,image-keyboard-response,159,731247,0.0-7.0-3.0-0.9,69,Study 69,Session 69,NA,1803,img/testing_events/Ac/Test_Ac_Event_9.jpg,u,response,u,NA,TRUE,Ac
NA,NA,NA,NA,NA,image-keyboard-response,160,733338,0.0-7.0-3.0-0.10,69,Study 69,Session 69,NA,2089,img/testing_events/Ac/Test_Ac_Event_16.jpg,u,response,e,NA,FALSE,Ac
NA,NA,NA,NA,NA,image-keyboard-response,161,734489,0.0-7.0-3.0-0.11,69,Study 69,Session 69,NA,1159,img/testing_events/Ac/Test_Ac_Event_6.jpg,u,response,c,NA,FALSE,Ac
NA,NA,NA,NA,NA,image-keyboard-response,162,735846,0.0-7.0-3.0-0.12,69,Study 69,Session 69,NA,1355,img/testing_events/Ac/Test_Ac_Event_5.jpg,e,response,u,NA,FALSE,Ac
NA,NA,NA,NA,NA,image-keyboard-response,163,737130,0.0-7.0-3.0-0.13,69,Study 69,Session 69,NA,1283,img/testing_events/Ac/Test_Ac_Event_3.jpg,n,response,n,NA,TRUE,Ac
NA,NA,NA,NA,NA,image-keyboard-response,164,740314,0.0-7.0-3.0-0.14,69,Study 69,Session 69,NA,3181,img/testing_events/Ac/Test_Ac_Event_17.jpg,u,response,u,NA,TRUE,Ac
NA,NA,NA,NA,NA,image-keyboard-response,165,740961,0.0-7.0-3.0-0.15,69,Study 69,Session 69,NA,645,img/testing_events/Ac/Test_Ac_Event_23.jpg,n,response,n,NA,TRUE,Ac
NA,NA,NA,NA,NA,image-keyboard-response,166,744316,0.0-7.0-3.0-0.16,69,Study 69,Session 69,NA,3353,img/testing_events/Ac/Test_Ac_Event_20.jpg,e,response,e,NA,TRUE,Ac
NA,NA,NA,NA,NA,image-keyboard-response,167,745947,0.0-7.0-3.0-0.17,69,Study 69,Session 69,NA,1629,img/testing_events/Ac/Test_Ac_Event_10.jpg,e,response,c,NA,FALSE,Ac
NA,NA,NA,NA,NA,image-keyboard-response,168,747979,0.0-7.0-3.0-0.18,69,Study 69,Session 69,NA,2030,img/testing_events/Ac/Test_Ac_Event_22.jpg,c,response,c,NA,TRUE,Ac
NA,NA,NA,NA,NA,image-keyboard-response,169,750095,0.0-7.0-3.0-0.19,69,Study 69,Session 69,NA,2115,img/testing_events/Ac/Test_Ac_Event_15.jpg,e,response,n,NA,FALSE,Ac
NA,NA,NA,NA,NA,image-keyboard-response,170,753062,0.0-7.0-3.0-0.20,69,Study 69,Session 69,NA,2966,img/testing_events/Ac/Test_Ac_Event_13.jpg,e,response,u,NA,FALSE,Ac
NA,NA,NA,NA,NA,image-keyboard-response,171,755616,0.0-7.0-3.0-0.21,69,Study 69,Session 69,NA,2552,img/testing_events/Ac/Test_Ac_Event_11.jpg,e,response,n,NA,FALSE,Ac
NA,NA,NA,NA,NA,image-keyboard-response,172,759294,0.0-7.0-3.0-0.22,69,Study 69,Session 69,NA,3676,img/testing_events/Ac/Test_Ac_Event_8.jpg,c,response,e,NA,FALSE,Ac
NA,NA,NA,NA,NA,image-keyboard-response,173,761759,0.0-7.0-3.0-0.23,69,Study 69,Session 69,NA,2464,img/testing_events/Ac/Test_Ac_Event_12.jpg,u,response,e,NA,FALSE,Ac
NA,NA,NA,NA,NA,image-keyboard-response,174,763238,0.0-7.0-4.0-0.0,69,Study 69,Session 69,NA,1477,img/testing_events/Bc/Test_Bc_Event_6.jpg,e,response,e,NA,TRUE,Bc
NA,NA,NA,NA,NA,image-keyboard-response,175,765368,0.0-7.0-4.0-0.1,69,Study 69,Session 69,NA,2128,img/testing_events/Bc/Test_Bc_Event_20.jpg,n,response,c,NA,FALSE,Bc
NA,NA,NA,NA,NA,image-keyboard-response,176,767203,0.0-7.0-4.0-0.2,69,Study 69,Session 69,NA,1833,img/testing_events/Bc/Test_Bc_Event_8.jpg,c,response,c,NA,TRUE,Bc
NA,NA,NA,NA,NA,image-keyboard-response,177,769798,0.0-7.0-4.0-0.3,69,Study 69,Session 69,NA,2593,img/testing_events/Bc/Test_Bc_Event_16.jpg,u,response,c,NA,FALSE,Bc
NA,NA,NA,NA,NA,image-keyboard-response,178,771965,0.0-7.0-4.0-0.4,69,Study 69,Session 69,NA,2166,img/testing_events/Bc/Test_Bc_Event_10.jpg,n,response,e,NA,FALSE,Bc
NA,NA,NA,NA,NA,image-keyboard-response,179,773905,0.0-7.0-4.0-0.5,69,Study 69,Session 69,NA,1938,img/testing_events/Bc/Test_Bc_Event_19.jpg,e,response,u,NA,FALSE,Bc
NA,NA,NA,NA,NA,image-keyboard-response,180,775546,0.0-7.0-4.0-0.6,69,Study 69,Session 69,NA,1640,img/testing_events/Bc/Test_Bc_Event_11.jpg,n,response,u,NA,FALSE,Bc
NA,NA,NA,NA,NA,image-keyboard-response,181,777992,0.0-7.0-4.0-0.7,69,Study 69,Session 69,NA,2444,img/testing_events/Bc/Test_Bc_Event_1.jpg,e,response,n,NA,FALSE,Bc
NA,NA,NA,NA,NA,image-keyboard-response,182,779601,0.0-7.0-4.0-0.8,69,Study 69,Session 69,NA,1607,img/testing_events/Bc/Test_Bc_Event_17.jpg,n,response,n,NA,TRUE,Bc
NA,NA,NA,NA,NA,image-keyboard-response,183,782396,0.0-7.0-4.0-0.9,69,Study 69,Session 69,NA,2794,img/testing_events/Bc/Test_Bc_Event_21.jpg,e,response,n,NA,FALSE,Bc
NA,NA,NA,NA,NA,image-keyboard-response,184,783898,0.0-7.0-4.0-0.10,69,Study 69,Session 69,NA,1500,img/testing_events/Bc/Test_Bc_Event_22.jpg,e,response,e,NA,TRUE,Bc
NA,NA,NA,NA,NA,image-keyboard-response,185,786142,0.0-7.0-4.0-0.11,69,Study 69,Session 69,NA,2243,img/testing_events/Bc/Test_Bc_Event_15.jpg,c,response,u,NA,FALSE,Bc
NA,NA,NA,NA,NA,image-keyboard-response,186,787752,0.0-7.0-4.0-0.12,69,Study 69,Session 69,NA,1608,img/testing_events/Bc/Test_Bc_Event_3.jpg,u,response,u,NA,TRUE,Bc
NA,NA,NA,NA,NA,image-keyboard-response,187,789664,0.0-7.0-4.0-0.13,69,Study 69,Session 69,NA,1911,img/testing_events/Bc/Test_Bc_Event_7.jpg,c,response,u,NA,FALSE,Bc
NA,NA,NA,NA,NA,image-keyboard-response,188,791720,0.0-7.0-4.0-0.14,69,Study 69,Session 69,NA,2054,img/testing_events/Bc/Test_Bc_Event_24.jpg,e,response,c,NA,FALSE,Bc
NA,NA,NA,NA,NA,image-keyboard-response,189,794668,0.0-7.0-4.0-0.15,69,Study 69,Session 69,NA,2942,img/testing_events/Bc/Test_Bc_Event_13.jpg,c,response,n,NA,FALSE,Bc
NA,NA,NA,NA,NA,image-keyboard-response,190,797531,0.0-7.0-4.0-0.16,69,Study 69,Session 69,NA,2861,img/testing_events/Bc/Test_Bc_Event_14.jpg,e,response,e,NA,TRUE,Bc
NA,NA,NA,NA,NA,image-keyboard-response,191,802075,0.0-7.0-4.0-0.17,69,Study 69,Session 69,NA,4543,img/testing_events/Bc/Test_Bc_Event_5.jpg,c,response,n,NA,FALSE,Bc
NA,NA,NA,NA,NA,image-keyboard-response,192,803266,0.0-7.0-4.0-0.18,69,Study 69,Session 69,NA,1189,img/testing_events/Bc/Test_Bc_Event_9.jpg,e,response,n,NA,FALSE,Bc
NA,NA,NA,NA,NA,image-keyboard-response,193,804129,0.0-7.0-4.0-0.19,69,Study 69,Session 69,NA,861,img/testing_events/Bc/Test_Bc_Event_23.jpg,u,response,u,NA,TRUE,Bc
NA,NA,NA,NA,NA,image-keyboard-response,194,805356,0.0-7.0-4.0-0.20,69,Study 69,Session 69,NA,1226,img/testing_events/Bc/Test_Bc_Event_12.jpg,e,response,c,NA,FALSE,Bc
NA,NA,NA,NA,NA,image-keyboard-response,195,806639,0.0-7.0-4.0-0.21,69,Study 69,Session 69,NA,1281,img/testing_events/Bc/Test_Bc_Event_2.jpg,e,response,e,NA,TRUE,Bc
NA,NA,NA,NA,NA,image-keyboard-response,196,808290,0.0-7.0-4.0-0.22,69,Study 69,Session 69,NA,1649,img/testing_events/Bc/Test_Bc_Event_4.jpg,e,response,c,NA,FALSE,Bc
NA,NA,NA,NA,NA,image-keyboard-response,197,809664,0.0-7.0-4.0-0.23,69,Study 69,Session 69,NA,1373,img/testing_events/Bc/Test_Bc_Event_18.jpg,n,response,e,NA,FALSE,Bc
NA,NA,NA,NA,NA,image-keyboard-response,198,812099,0.0-7.0-5.0-0.0,69,Study 69,Session 69,NA,2434,img/testing_events/Ba/Test_Ba_Event_21.jpg,c,response,c,NA,TRUE,Ba
NA,NA,NA,NA,NA,image-keyboard-response,199,814227,0.0-7.0-5.0-0.1,69,Study 69,Session 69,NA,2126,img/testing_events/Ba/Test_Ba_Event_3.jpg,e,response,e,NA,TRUE,Ba
NA,NA,NA,NA,NA,image-keyboard-response,200,816088,0.0-7.0-5.0-0.2,69,Study 69,Session 69,NA,1859,img/testing_events/Ba/Test_Ba_Event_23.jpg,e,response,e,NA,TRUE,Ba
NA,NA,NA,NA,NA,image-keyboard-response,201,821553,0.0-7.0-5.0-0.3,69,Study 69,Session 69,NA,5463,img/testing_events/Ba/Test_Ba_Event_4.jpg,u,response,u,NA,TRUE,Ba
NA,NA,NA,NA,NA,image-keyboard-response,202,823553,0.0-7.0-5.0-0.4,69,Study 69,Session 69,NA,1999,img/testing_events/Ba/Test_Ba_Event_17.jpg,c,response,c,NA,TRUE,Ba
NA,NA,NA,NA,NA,image-keyboard-response,203,827125,0.0-7.0-5.0-0.5,69,Study 69,Session 69,NA,3570,img/testing_events/Ba/Test_Ba_Event_14.jpg,n,response,n,NA,TRUE,Ba
NA,NA,NA,NA,NA,image-keyboard-response,204,833313,0.0-7.0-5.0-0.6,69,Study 69,Session 69,NA,6186,img/testing_events/Ba/Test_Ba_Event_20.jpg,u,response,u,NA,TRUE,Ba
NA,NA,NA,NA,NA,image-keyboard-response,205,836657,0.0-7.0-5.0-0.7,69,Study 69,Session 69,NA,3342,img/testing_events/Ba/Test_Ba_Event_9.jpg,c,response,c,NA,TRUE,Ba
NA,NA,NA,NA,NA,image-keyboard-response,206,843876,0.0-7.0-5.0-0.8,69,Study 69,Session 69,NA,7218,img/testing_events/Ba/Test_Ba_Event_1.jpg,u,response,c,NA,FALSE,Ba
NA,NA,NA,NA,NA,image-keyboard-response,207,845563,0.0-7.0-5.0-0.9,69,Study 69,Session 69,NA,1684,img/testing_events/Ba/Test_Ba_Event_19.jpg,c,response,e,NA,FALSE,Ba
NA,NA,NA,NA,NA,image-keyboard-response,208,847026,0.0-7.0-5.0-0.10,69,Study 69,Session 69,NA,1461,img/testing_events/Ba/Test_Ba_Event_6.jpg,n,response,n,NA,TRUE,Ba
NA,NA,NA,NA,NA,image-keyboard-response,209,849406,0.0-7.0-5.0-0.11,69,Study 69,Session 69,NA,2378,img/testing_events/Ba/Test_Ba_Event_13.jpg,u,response,c,NA,FALSE,Ba
NA,NA,NA,NA,NA,image-keyboard-response,210,851994,0.0-7.0-5.0-0.12,69,Study 69,Session 69,NA,2587,img/testing_events/Ba/Test_Ba_Event_2.jpg,n,response,n,NA,TRUE,Ba
NA,NA,NA,NA,NA,image-keyboard-response,211,855620,0.0-7.0-5.0-0.13,69,Study 69,Session 69,NA,3633,img/testing_events/Ba/Test_Ba_Event_18.jpg,c,response,n,NA,FALSE,Ba
NA,NA,NA,NA,NA,image-keyboard-response,212,857705,0.0-7.0-5.0-0.14,69,Study 69,Session 69,NA,2082,img/testing_events/Ba/Test_Ba_Event_10.jpg,u,response,n,NA,FALSE,Ba
NA,NA,NA,NA,NA,image-keyboard-response,213,860536,0.0-7.0-5.0-0.15,69,Study 69,Session 69,NA,2830,img/testing_events/Ba/Test_Ba_Event_8.jpg,u,response,u,NA,TRUE,Ba
NA,NA,NA,NA,NA,image-keyboard-response,214,862676,0.0-7.0-5.0-0.16,69,Study 69,Session 69,NA,2139,img/testing_events/Ba/Test_Ba_Event_5.jpg,c,response,c,NA,TRUE,Ba
NA,NA,NA,NA,NA,image-keyboard-response,215,864803,0.0-7.0-5.0-0.17,69,Study 69,Session 69,NA,2125,img/testing_events/Ba/Test_Ba_Event_12.jpg,e,response,u,NA,FALSE,Ba
NA,NA,NA,NA,NA,image-keyboard-response,216,867484,0.0-7.0-5.0-0.18,69,Study 69,Session 69,NA,2679,img/testing_events/Ba/Test_Ba_Event_16.jpg,u,response,u,NA,TRUE,Ba
NA,NA,NA,NA,NA,image-keyboard-response,217,869230,0.0-7.0-5.0-0.19,69,Study 69,Session 69,NA,1745,img/testing_events/Ba/Test_Ba_Event_22.jpg,c,response,n,NA,FALSE,Ba
NA,NA,NA,NA,NA,image-keyboard-response,218,870759,0.0-7.0-5.0-0.20,69,Study 69,Session 69,NA,1527,img/testing_events/Ba/Test_Ba_Event_11.jpg,e,response,e,NA,TRUE,Ba
NA,NA,NA,NA,NA,image-keyboard-response,219,872371,0.0-7.0-5.0-0.21,69,Study 69,Session 69,NA,1611,img/testing_events/Ba/Test_Ba_Event_15.jpg,e,response,e,NA,TRUE,Ba
NA,NA,NA,NA,NA,image-keyboard-response,220,874590,0.0-7.0-5.0-0.22,69,Study 69,Session 69,NA,2217,img/testing_events/Ba/Test_Ba_Event_24.jpg,n,response,u,NA,FALSE,Ba
NA,NA,NA,NA,NA,image-keyboard-response,221,875953,0.0-7.0-5.0-0.23,69,Study 69,Session 69,NA,1361,img/testing_events/Ba/Test_Ba_Event_7.jpg,n,response,e,NA,FALSE,Ba
NA,NA,NA,NA,NA,survey-text,222,895693,0.0-8.0,69,Study 69,Session 69,NA,19697,NA,"{""Q0"":""No"",""Q1"":""No"",""Q2"":""No""}",NA,NA,NA,NA,NA
NA,NA,NA,NA,NA,survey-html-form,223,923372,0.0-9.0,69,Study 69,Session 69,NA,27661,NA,"{""Gender"":""Female"",""Age"":""19"",""ColorBlind"":""No"",""Education"":""High School Graduate"",""Income"":""$25,000-$49,999"",""Race"":""White"",""Fluent"":""Yes"",""AgeEnglish"":""0"",""Country"":""USA""}",NA,NA,NA,NA,NA
TRUE,NA,NA,NA,NA,fullscreen,224,923375,0.0-10.0,69,Study 69,Session 69,NA,NA,NA,NA,NA,NA,NA,NA,NA
