success,timeout,failed_images,failed_audio,failed_video,trial_type,trial_index,time_elapsed,internal_node_id,subject_id,study_id,session_id,view_history,rt,stimulus,response,task,correct_response,attention_duration,correct,retrieval_group
TRUE,FALSE,[],[],[],preload,0,766,0.0-0.0,74,Study 74,Session 74,NA,NA,NA,NA,NA,NA,NA,NA,NA
TRUE,NA,NA,NA,NA,fullscreen,1,3077,0.0-1.0,74,Study 74,Session 74,NA,NA,NA,NA,NA,NA,NA,NA,NA
NA,NA,NA,NA,NA,instructions,2,4671,0.0-2.0,74,Study 74,Session 74,"[{""page_index"":0,""viewing_time"":1593}]",1593,NA,NA,NA,NA,NA,NA,NA
NA,NA,NA,NA,NA,html-keyboard-response,3,1029056,0.0-3.0,74,Study 74,Session 74,NA,1024384,"Welcome to the experiment. <br /><br />This experiment will take about 20 minutes. Please complete all in one sitting. <br /><br />For this study, <strong>please use</strong> a laptop or desktop computer (not a mobile phone or tablet). Also, please use either <u>Chrome or Firefox</u>. <br /><br />Once you begin, <strong>DO NOT</strong> refresh the browser, as the experiment will reset and you will lose your progress. <br /><br />Press the <strong class=""upperline"">B</strong> key on your keyboard to begin.",b,NA,NA,NA,NA,NA
NA,NA,NA,NA,NA,instructions,4,1035054,0.0-4.0,74,Study 74,Session 74,"[{""page_index"":0,""viewing_time"":1126},{""page_index"":1,""viewing_time"":2568},{""page_index"":2,""viewing_time"":1296}]",4990,NA,NA,NA,NA,NA,NA,NA
NA,NA,NA,NA,NA,html-keyboard-response,5,1038073,0.0-5.0-0.0,74,Study 74,Session 74,NA,null,"<div style=""font-size:60px;"">+</div>",null,fixation,NA,NA,NA,NA
NA,NA,NA,NA,NA,image-keyboard-response,6,1044093,0.0-5.0-1.0,74,Study 74,Session 74,NA,null,img/encoding_events/Event_6.jpg,null,NA,NA,NA,NA,NA
NA,NA,NA,NA,NA,html-keyboard-response,7,1044098,0.0-5.0-2.0,74,Study 74,Session 74,NA,null,Please press the <strong><u>j</u></strong> key to continue,null,response,j,0,FALSE,NA
NA,NA,NA,NA,NA,html-keyboard-response,8,1044608,0.0-5.0-0.1,74,Study 74,Session 74,NA,null,"<div style=""font-size:60px;"">+</div>",null,fixation,NA,NA,NA,NA
NA,NA,NA,NA,NA,image-keyboard-response,9,1050625,0.0-5.0-1.1,74,Study 74,Session 74,NA,null,img/encoding_events/Event_5.jpg,null,NA,NA,NA,NA,NA
NA,NA,NA,NA,NA,html-keyboard-response,10,1050631,0.0-5.0-2.1,74,Study 74,Session 74,NA,null,Please press the <strong><u>d</u></strong> key to continue,null,response,d,0,FALSE,NA
NA,NA,NA,NA,NA,html-keyboard-response,11,1051140,0.0-5.0-0.2,74,Study 74,Session 74,NA,null,"<div style=""font-size:60px;"">+</div>",null,fixation,NA,NA,NA,NA
NA,NA,NA,NA,NA,image-keyboard-response,12,1057157,0.0-5.0-1.2,74,Study 74,Session 74,NA,null,img/encoding_events/Event_17.jpg,null,NA,NA,NA,NA,NA
NA,NA,NA,NA,NA,html-keyboard-response,13,1057163,0.0-5.0-2.2,74,Study 74,Session 74,NA,null,Please press the <strong><u>j</u></strong> key to continue,null,response,j,0,FALSE,NA
NA,NA,NA,NA,NA,html-keyboard-response,14,1057674,0.0-5.0-0.3,74,Study 74,Session 74,NA,null,"<div style=""font-size:60px;"">+</div>",null,fixation,NA,NA,NA,NA
NA,NA,NA,NA,NA,image-keyboard-response,15,1063684,0.0-5.0-1.3,74,Study 74,Session 74,NA,null,img/encoding_events/Event_20.jpg,null,NA,NA,NA,NA,NA
NA,NA,NA,NA,NA,html-keyboard-response,16,1065355,0.0-5.0-2.3,74,Study 74,Session 74,NA,1670,Please press the <strong><u>s</u></strong> key to continue,s,response,s,6000,TRUE,NA
NA,NA,NA,NA,NA,html-keyboard-response,17,1065856,0.0-5.0-0.4,74,Study 74,Session 74,NA,null,"<div style=""font-size:60px;"">+</div>",null,fixation,NA,NA,NA,NA
NA,NA,NA,NA,NA,image-keyboard-response,18,1071869,0.0-5.0-1.4,74,Study 74,Session 74,NA,null,img/encoding_events/Event_1.jpg,null,NA,NA,NA,NA,NA
NA,NA,NA,NA,NA,html-keyboard-response,19,1071872,0.0-5.0-2.4,74,Study 74,Session 74,NA,null,Please press the <strong><u>j</u></strong> key to continue,null,response,j,0,FALSE,NA
NA,NA,NA,NA,NA,html-keyboard-response,20,1072387,0.0-5.0-0.5,74,Study 74,Session 74,NA,null,"<div style=""font-size:60px;"">+</div>",null,fixation,NA,NA,NA,NA
NA,NA,NA,NA,NA,image-keyboard-response,21,1078391,0.0-5.0-1.5,74,Study 74,Session 74,NA,null,img/encoding_events/Event_9.jpg,null,NA,NA,NA,NA,NA
NA,NA,NA,NA,NA,html-keyboard-response,22,1078397,0.0-5.0-2.5,74,Study 74,Session 74,NA,null,Please press the <strong><u>k</u></strong> key to continue,null,response,k,0,FALSE,NA
NA,NA,NA,NA,NA,html-keyboard-response,23,1078905,0.0-5.0-0.6,74,Study 74,Session 74,NA,null,"<div style=""font-size:60px;"">+</div>",null,fixation,NA,NA,NA,NA
NA,NA,NA,NA,NA,image-keyboard-response,24,1084923,0.0-5.0-1.6,74,Study 74,Session 74,NA,null,img/encoding_events/Event_4.jpg,null,NA,NA,NA,NA,NA
NA,NA,NA,NA,NA,html-keyboard-response,25,1084928,0.0-5.0-2.6,74,Study 74,Session 74,NA,null,Please press the <strong><u>d</u></strong> key to continue,null,response,d,0,FALSE,NA
NA,NA,NA,NA,NA,html-keyboard-response,26,1085438,0.0-5.0-0.7,74,Study 74,Session 74,NA,null,"<div style=""font-size:60px;"">+</div>",null,fixation,NA,NA,NA,NA
NA,NA,NA,NA,NA,image-keyboard-response,27,1091440,0.0-5.0-1.7,74,Study 74,Session 74,NA,null,img/encoding_events/Event_12.jpg,null,NA,NA,NA,NA,NA
NA,NA,NA,NA,NA,html-keyboard-response,28,1097442,0.0-5.0-2.7,74,Study 74,Session 74,NA,null,Please press the <strong><u>k</u></strong> key to continue,null,response,k,6000,FALSE,NA
NA,NA,NA,NA,NA,html-keyboard-response,29,1097945,0.0-5.0-0.8,74,Study 74,Session 74,NA,null,"<div style=""font-size:60px;"">+</div>",null,fixation,NA,NA,NA,NA
NA,NA,NA,NA,NA,image-keyboard-response,30,1103958,0.0-5.0-1.8,74,Study 74,Session 74,NA,null,img/encoding_events/Event_8.jpg,null,NA,NA,NA,NA,NA
NA,NA,NA,NA,NA,html-keyboard-response,31,1103963,0.0-5.0-2.8,74,Study 74,Session 74,NA,null,Please press the <strong><u>s</u></strong> key to continue,null,response,s,0,FALSE,NA
NA,NA,NA,NA,NA,html-keyboard-response,32,1104471,0.0-5.0-0.9,74,Study 74,Session 74,NA,null,"<div style=""font-size:60px;"">+</div>",null,fixation,NA,NA,NA,NA
NA,NA,NA,NA,NA,image-keyboard-response,33,1110479,0.0-5.0-1.9,74,Study 74,Session 74,NA,null,img/encoding_events/Event_10.jpg,null,NA,NA,NA,NA,NA
NA,NA,NA,NA,NA,html-keyboard-response,34,1110485,0.0-5.0-2.9,74,Study 74,Session 74,NA,null,Please press the <strong><u>s</u></strong> key to continue,null,response,s,0,FALSE,NA
NA,NA,NA,NA,NA,html-keyboard-response,35,1110995,0.0-5.0-0.10,74,Study 74,Session 74,NA,null,"<div style=""font-size:60px;"">+</div>",null,fixation,NA,NA,NA,NA
NA,NA,NA,NA,NA,image-keyboard-response,36,1117007,0.0-5.0-1.10,74,Study 74,Session 74,NA,null,img/encoding_events/Event_13.jpg,null,NA,NA,NA,NA,NA
NA,NA,NA,NA,NA,html-keyboard-response,37,1117012,0.0-5.0-2.10,74,Study 74,Session 74,NA,null,Please press the <strong><u>s</u></strong> key to continue,null,response,s,0,FALSE,NA
NA,NA,NA,NA,NA,html-keyboard-response,38,1117525,0.0-5.0-0.11,74,Study 74,Session 74,NA,null,"<div style=""font-size:60px;"">+</div>",null,fixation,NA,NA,NA,NA
NA,NA,NA,NA,NA,image-keyboard-response,39,1123534,0.0-5.0-1.11,74,Study 74,Session 74,NA,null,img/encoding_events/Event_7.jpg,null,NA,NA,NA,NA,NA
NA,NA,NA,NA,NA,html-keyboard-response,40,1129547,0.0-5.0-2.11,74,Study 74,Session 74,NA,null,Please press the <strong><u>f</u></strong> key to continue,null,response,f,6000,FALSE,NA
NA,NA,NA,NA,NA,html-keyboard-response,41,1130063,0.0-5.0-0.12,74,Study 74,Session 74,NA,null,"<div style=""font-size:60px;"">+</div>",null,fixation,NA,NA,NA,NA
NA,NA,NA,NA,NA,image-keyboard-response,42,1136069,0.0-5.0-1.12,74,Study 74,Session 74,NA,null,img/encoding_events/Event_15.jpg,null,NA,NA,NA,NA,NA
NA,NA,NA,NA,NA,html-keyboard-response,43,1136074,0.0-5.0-2.12,74,Study 74,Session 74,NA,null,Please press the <strong><u>j</u></strong> key to continue,null,response,j,0,FALSE,NA
NA,NA,NA,NA,NA,html-keyboard-response,44,1136585,0.0-5.0-0.13,74,Study 74,Session 74,NA,null,"<div style=""font-size:60px;"">+</div>",null,fixation,NA,NA,NA,NA
NA,NA,NA,NA,NA,image-keyboard-response,45,1142599,0.0-5.0-1.13,74,Study 74,Session 74,NA,null,img/encoding_events/Event_21.jpg,null,NA,NA,NA,NA,NA
NA,NA,NA,NA,NA,html-keyboard-response,46,1142603,0.0-5.0-2.13,74,Study 74,Session 74,NA,null,Please press the <strong><u>a</u></strong> key to continue,null,response,a,0,FALSE,NA
NA,NA,NA,NA,NA,html-keyboard-response,47,1143115,0.0-5.0-0.14,74,Study 74,Session 74,NA,null,"<div style=""font-size:60px;"">+</div>",null,fixation,NA,NA,NA,NA
NA,NA,NA,NA,NA,image-keyboard-response,48,1149119,0.0-5.0-1.14,74,Study 74,Session 74,NA,null,img/encoding_events/Event_14.jpg,null,NA,NA,NA,NA,NA
NA,NA,NA,NA,NA,html-keyboard-response,49,1149125,0.0-5.0-2.14,74,Study 74,Session 74,NA,null,Please press the <strong><u>f</u></strong> key to continue,null,response,f,0,FALSE,NA
NA,NA,NA,NA,NA,html-keyboard-response,50,1149637,0.0-5.0-0.15,74,Study 74,Session 74,NA,null,"<div style=""font-size:60px;"">+</div>",null,fixation,NA,NA,NA,NA
NA,NA,NA,NA,NA,image-keyboard-response,51,1155642,0.0-5.0-1.15,74,Study 74,Session 74,NA,null,img/encoding_events/Event_18.jpg,null,NA,NA,NA,NA,NA
NA,NA,NA,NA,NA,html-keyboard-response,52,1159832,0.0-5.0-2.15,74,Study 74,Session 74,NA,4190,Please press the <strong><u>s</u></strong> key to continue,s,response,s,6000,TRUE,NA
NA,NA,NA,NA,NA,html-keyboard-response,53,1160347,0.0-5.0-0.16,74,Study 74,Session 74,NA,null,"<div style=""font-size:60px;"">+</div>",null,fixation,NA,NA,NA,NA
NA,NA,NA,NA,NA,image-keyboard-response,54,1166359,0.0-5.0-1.16,74,Study 74,Session 74,NA,null,img/encoding_events/Event_16.jpg,null,NA,NA,NA,NA,NA
NA,NA,NA,NA,NA,html-keyboard-response,55,1166362,0.0-5.0-2.16,74,Study 74,Session 74,NA,null,Please press the <strong><u>k</u></strong> key to continue,null,response,k,0,FALSE,NA
NA,NA,NA,NA,NA,html-keyboard-response,56,1166873,0.0-5.0-0.17,74,Study 74,Session 74,NA,null,"<div style=""font-size:60px;"">+</div>",null,fixation,NA,NA,NA,NA
NA,NA,NA,NA,NA,image-keyboard-response,57,1172888,0.0-5.0-1.17,74,Study 74,Session 74,NA,null,img/encoding_events/Event_24.jpg,null,NA,NA,NA,NA,NA
NA,NA,NA,NA,NA,html-keyboard-response,58,1172893,0.0-5.0-2.17,74,Study 74,Session 74,NA,null,Please press the <strong><u>s</u></strong> key to continue,null,response,s,0,FALSE,NA
NA,NA,NA,NA,NA,html-keyboard-response,59,1173403,0.0-5.0-0.18,74,Study 74,Session 74,NA,null,"<div style=""font-size:60px;"">+</div>",null,fixation,NA,NA,NA,NA
NA,NA,NA,NA,NA,image-keyboard-response,60,1179413,0.0-5.0-1.18,74,Study 74,Session 74,NA,null,img/encoding_events/Event_22.jpg,null,NA,NA,NA,NA,NA
NA,NA,NA,NA,NA,html-keyboard-response,61,1179418,0.0-5.0-2.18,74,Study 74,Session 74,NA,null,Please press the <strong><u>f</u></strong> key to continue,null,response,f,0,FALSE,NA
NA,NA,NA,NA,NA,html-keyboard-response,62,1179925,0.0-5.0-0.19,74,Study 74,Session 74,NA,null,"<div style=""font-size:60px;"">+</div>",null,fixation,NA,NA,NA,NA
NA,NA,NA,NA,NA,image-keyboard-response,63,1185939,0.0-5.0-1.19,74,Study 74,Session 74,NA,null,img/encoding_events/Event_3.jpg,null,NA,NA,NA,NA,NA
NA,NA,NA,NA,NA,html-keyboard-response,64,1191189,0.0-5.0-2.19,74,Study 74,Session 74,NA,5248,Please press the <strong><u>j</u></strong> key to continue,j,response,j,6000,TRUE,NA
NA,NA,NA,NA,NA,html-keyboard-response,65,1191700,0.0-5.0-0.20,74,Study 74,Session 74,NA,null,"<div style=""font-size:60px;"">+</div>",null,fixation,NA,NA,NA,NA
NA,NA,NA,NA,NA,image-keyboard-response,66,1197706,0.0-5.0-1.20,74,Study 74,Session 74,NA,null,img/encoding_events/Event_19.jpg,null,NA,NA,NA,NA,NA
NA,NA,NA,NA,NA,html-keyboard-response,67,1197707,0.0-5.0-2.20,74,Study 74,Session 74,NA,null,Please press the <strong><u>j</u></strong> key to continue,null,response,j,0,FALSE,NA
NA,NA,NA,NA,NA,html-keyboard-response,68,1198218,0.0-5.0-0.21,74,Study 74,Session 74,NA,null,"<div style=""font-size:60px;"">+</div>",null,fixation,NA,NA,NA,NA
NA,NA,NA,NA,NA,image-keyboard-response,69,1204229,0.0-5.0-1.21,74,Study 74,Session 74,NA,null,img/encoding_events/Event_11.jpg,null,NA,NA,NA,NA,NA
NA,NA,NA,NA,NA,html-keyboard-response,70,1204235,0.0-5.0-2.21,74,Study 74,Session 74,NA,null,Please press the <strong><u>a</u></strong> key to continue,null,response,a,0,FALSE,NA
NA,NA,NA,NA,NA,html-keyboard-response,71,1204744,0.0-5.0-0.22,74,Study 74,Session 74,NA,null,"<div style=""font-size:60px;"">+</div>",null,fixation,NA,NA,NA,NA
NA,NA,NA,NA,NA,image-keyboard-response,72,1210760,0.0-5.0-1.22,74,Study 74,Session 74,NA,null,img/encoding_events/Event_2.jpg,null,NA,NA,NA,NA,NA
NA,NA,NA,NA,NA,html-keyboard-response,73,1210767,0.0-5.0-2.22,74,Study 74,Session 74,NA,null,Please press the <strong><u>j</u></strong> key to continue,null,response,j,0,FALSE,NA
NA,NA,NA,NA,NA,html-keyboard-response,74,1211277,0.0-5.0-0.23,74,Study 74,Session 74,NA,null,"<div style=""font-size:60px;"">+</div>",null,fixation,NA,NA,NA,NA
NA,NA,NA,NA,NA,image-keyboard-response,75,1217291,0.0-5.0-1.23,74,Study 74,Session 74,NA,null,img/encoding_events/Event_23.jpg,null,NA,NA,NA,NA,NA
NA,NA,NA,NA,NA,html-keyboard-response,76,1218829,0.0-5.0-2.23,74,Study 74,Session 74,NA,1537,Please press the <strong><u>f</u></strong> key to continue,f,response,f,6000,TRUE,NA
NA,NA,NA,NA,NA,instructions,77,1243903,0.0-6.0,74,Study 74,Session 74,"[{""page_index"":0,""viewing_time"":1848},{""page_index"":1,""viewing_time"":9840},{""page_index"":2,""viewing_time"":969},{""page_index"":3,""viewing_time"":3832},{""page_index"":4,""viewing_time"":1448},{""page_index"":5,""viewing_time"":5201},{""page_index"":6,""viewing_time"":1936}]",25074,NA,NA,NA,NA,NA,NA,NA
NA,NA,NA,NA,NA,image-keyboard-response,78,1251516,0.0-7.0-0.0-0.0,74,Study 74,Session 74,NA,5098,img/testing_events/Ac/Test_Ac_Event_15.jpg,n,response,n,NA,TRUE,Ac
NA,NA,NA,NA,NA,image-keyboard-response,79,1254681,0.0-7.0-0.0-0.1,74,Study 74,Session 74,NA,3164,img/testing_events/Ac/Test_Ac_Event_7.jpg,n,response,n,NA,TRUE,Ac
NA,NA,NA,NA,NA,image-keyboard-response,80,1263450,0.0-7.0-0.0-0.2,74,Study 74,Session 74,NA,8767,img/testing_events/Ac/Test_Ac_Event_24.jpg,u,response,e,NA,FALSE,Ac
NA,NA,NA,NA,NA,image-keyboard-response,81,1263550,0.0-7.0-0.0-0.3,74,Study 74,Session 74,NA,99,img/testing_events/Ac/Test_Ac_Event_14.jpg,n,response,c,NA,FALSE,Ac
NA,NA,NA,NA,NA,image-keyboard-response,82,1264307,0.0-7.0-0.0-0.4,74,Study 74,Session 74,NA,756,img/testing_events/Ac/Test_Ac_Event_19.jpg,c,response,n,NA,FALSE,Ac
NA,NA,NA,NA,NA,image-keyboard-response,83,1265148,0.0-7.0-0.0-0.5,74,Study 74,Session 74,NA,840,img/testing_events/Ac/Test_Ac_Event_21.jpg,n,response,u,NA,FALSE,Ac
NA,NA,NA,NA,NA,image-keyboard-response,84,1266938,0.0-7.0-0.0-0.6,74,Study 74,Session 74,NA,1789,img/testing_events/Ac/Test_Ac_Event_4.jpg,e,response,e,NA,TRUE,Ac
NA,NA,NA,NA,NA,image-keyboard-response,85,1268358,0.0-7.0-0.0-0.7,74,Study 74,Session 74,NA,1418,img/testing_events/Ac/Test_Ac_Event_11.jpg,c,response,n,NA,FALSE,Ac
NA,NA,NA,NA,NA,image-keyboard-response,86,1269764,0.0-7.0-0.0-0.8,74,Study 74,Session 74,NA,1405,img/testing_events/Ac/Test_Ac_Event_18.jpg,u,response,c,NA,FALSE,Ac
NA,NA,NA,NA,NA,image-keyboard-response,87,1271075,0.0-7.0-0.0-0.9,74,Study 74,Session 74,NA,1310,img/testing_events/Ac/Test_Ac_Event_10.jpg,n,response,c,NA,FALSE,Ac
NA,NA,NA,NA,NA,image-keyboard-response,88,1272803,0.0-7.0-0.0-0.10,74,Study 74,Session 74,NA,1727,img/testing_events/Ac/Test_Ac_Event_1.jpg,e,response,u,NA,FALSE,Ac
NA,NA,NA,NA,NA,image-keyboard-response,89,1274554,0.0-7.0-0.0-0.11,74,Study 74,Session 74,NA,1749,img/testing_events/Ac/Test_Ac_Event_12.jpg,c,response,e,NA,FALSE,Ac
NA,NA,NA,NA,NA,image-keyboard-response,90,1276323,0.0-7.0-0.0-0.12,74,Study 74,Session 74,NA,1768,img/testing_events/Ac/Test_Ac_Event_3.jpg,n,response,n,NA,TRUE,Ac
NA,NA,NA,NA,NA,image-keyboard-response,91,1277413,0.0-7.0-0.0-0.13,74,Study 74,Session 74,NA,1089,img/testing_events/Ac/Test_Ac_Event_5.jpg,u,response,u,NA,TRUE,Ac
NA,NA,NA,NA,NA,image-keyboard-response,92,1279772,0.0-7.0-0.0-0.14,74,Study 74,Session 74,NA,2358,img/testing_events/Ac/Test_Ac_Event_17.jpg,e,response,u,NA,FALSE,Ac
NA,NA,NA,NA,NA,image-keyboard-response,93,1280849,0.0-7.0-0.0-0.15,74,Study 74,Session 74,NA,1075,img/testing_events/Ac/Test_Ac_Event_20.jpg,c,response,e,NA,FALSE,Ac
NA,NA,NA,NA,NA,image-keyboard-response,94,1281941,0.0-7.0-0.0-0.16,74,Study 74,Session 74,NA,1092,img/testing_events/Ac/Test_Ac_Event_23.jpg,n,response,n,NA,TRUE,Ac
NA,NA,NA,NA,NA,image-keyboard-response,95,1282874,0.0-7.0-0.0-0.17,74,Study 74,Session 74,NA,932,img/testing_events/Ac/Test_Ac_Event_16.jpg,u,response,e,NA,FALSE,Ac
NA,NA,NA,NA,NA,image-keyboard-response,96,1283941,0.0-7.0-0.0-0.18,74,Study 74,Session 74,NA,1066,img/testing_events/Ac/Test_Ac_Event_9.jpg,e,response,u,NA,FALSE,Ac
NA,NA,NA,NA,NA,image-keyboard-response,97,1284866,0.0-7.0-0.0-0.19,74,Study 74,Session 74,NA,924,img/testing_events/Ac/Test_Ac_Event_2.jpg,n,response,c,NA,FALSE,Ac
NA,NA,NA,NA,NA,image-keyboard-response,98,1285938,0.0-7.0-0.0-0.20,74,Study 74,Session 74,NA,1070,img/testing_events/Ac/Test_Ac_Event_13.jpg,c,response,u,NA,FALSE,Ac
NA,NA,NA,NA,NA,image-keyboard-response,99,1286560,0.0-7.0-0.0-0.21,74,Study 74,Session 74,NA,622,img/testing_events/Ac/Test_Ac_Event_8.jpg,u,response,e,NA,FALSE,Ac
NA,NA,NA,NA,NA,image-keyboard-response,100,1287372,0.0-7.0-0.0-0.22,74,Study 74,Session 74,NA,811,img/testing_events/Ac/Test_Ac_Event_6.jpg,e,response,c,NA,FALSE,Ac
NA,NA,NA,NA,NA,image-keyboard-response,101,1288316,0.0-7.0-0.0-0.23,74,Study 74,Session 74,NA,942,img/testing_events/Ac/Test_Ac_Event_22.jpg,n,response,c,NA,FALSE,Ac
NA,NA,NA,NA,NA,image-keyboard-response,102,1290752,0.0-7.0-1.0-0.0,74,Study 74,Session 74,NA,2436,img/testing_events/Ab/Test_Ab_Event_20.jpg,c,response,n,NA,FALSE,Ab
NA,NA,NA,NA,NA,image-keyboard-response,103,1291422,0.0-7.0-1.0-0.1,74,Study 74,Session 74,NA,669,img/testing_events/Ab/Test_Ab_Event_1.jpg,n,response,e,NA,FALSE,Ab
NA,NA,NA,NA,NA,image-keyboard-response,104,1292011,0.0-7.0-1.0-0.2,74,Study 74,Session 74,NA,587,img/testing_events/Ab/Test_Ab_Event_12.jpg,c,response,n,NA,FALSE,Ab
NA,NA,NA,NA,NA,image-keyboard-response,105,1292586,0.0-7.0-1.0-0.3,74,Study 74,Session 74,NA,574,img/testing_events/Ab/Test_Ab_Event_24.jpg,u,response,n,NA,FALSE,Ab
NA,NA,NA,NA,NA,image-keyboard-response,106,1293139,0.0-7.0-1.0-0.4,74,Study 74,Session 74,NA,552,img/testing_events/Ab/Test_Ab_Event_19.jpg,c,response,c,NA,TRUE,Ab
NA,NA,NA,NA,NA,image-keyboard-response,107,1294268,0.0-7.0-1.0-0.5,74,Study 74,Session 74,NA,1128,img/testing_events/Ab/Test_Ab_Event_18.jpg,n,response,u,NA,FALSE,Ab
NA,NA,NA,NA,NA,image-keyboard-response,108,1296002,0.0-7.0-1.0-0.6,74,Study 74,Session 74,NA,1734,img/testing_events/Ab/Test_Ab_Event_22.jpg,n,response,u,NA,FALSE,Ab
NA,NA,NA,NA,NA,image-keyboard-response,109,1296739,0.0-7.0-1.0-0.7,74,Study 74,Session 74,NA,735,img/testing_events/Ab/Test_Ab_Event_5.jpg,u,response,e,NA,FALSE,Ab
NA,NA,NA,NA,NA,image-keyboard-response,110,1298594,0.0-7.0-1.0-0.8,74,Study 74,Session 74,NA,1854,img/testing_events/Ab/Test_Ab_Event_13.jpg,e,response,e,NA,TRUE,Ab
NA,NA,NA,NA,NA,image-keyboard-response,111,1299148,0.0-7.0-1.0-0.9,74,Study 74,Session 74,NA,553,img/testing_events/Ab/Test_Ab_Event_21.jpg,u,response,e,NA,FALSE,Ab
NA,NA,NA,NA,NA,image-keyboard-response,112,1299626,0.0-7.0-1.0-0.10,74,Study 74,Session 74,NA,478,img/testing_events/Ab/Test_Ab_Event_2.jpg,c,response,u,NA,FALSE,Ab
NA,NA,NA,NA,NA,image-keyboard-response,113,1300325,0.0-7.0-1.0-0.11,74,Study 74,Session 74,NA,697,img/testing_events/Ab/Test_Ab_Event_16.jpg,n,response,n,NA,TRUE,Ab
NA,NA,NA,NA,NA,image-keyboard-response,114,1300949,0.0-7.0-1.0-0.12,74,Study 74,Session 74,NA,624,img/testing_events/Ab/Test_Ab_Event_15.jpg,c,response,c,NA,TRUE,Ab
NA,NA,NA,NA,NA,image-keyboard-response,115,1301508,0.0-7.0-1.0-0.13,74,Study 74,Session 74,NA,558,img/testing_events/Ab/Test_Ab_Event_3.jpg,u,response,c,NA,FALSE,Ab
NA,NA,NA,NA,NA,image-keyboard-response,116,1302058,0.0-7.0-1.0-0.14,74,Study 74,Session 74,NA,549,img/testing_events/Ab/Test_Ab_Event_6.jpg,e,response,u,NA,FALSE,Ab
NA,NA,NA,NA,NA,image-keyboard-response,117,1302586,0.0-7.0-1.0-0.15,74,Study 74,Session 74,NA,527,img/testing_events/Ab/Test_Ab_Event_8.jpg,n,response,n,NA,TRUE,Ab
NA,NA,NA,NA,NA,image-keyboard-response,118,1303094,0.0-7.0-1.0-0.16,74,Study 74,Session 74,NA,507,img/testing_events/Ab/Test_Ab_Event_9.jpg,c,response,e,NA,FALSE,Ab
NA,NA,NA,NA,NA,image-keyboard-response,119,1303686,0.0-7.0-1.0-0.17,74,Study 74,Session 74,NA,591,img/testing_events/Ab/Test_Ab_Event_14.jpg,n,response,u,NA,FALSE,Ab
NA,NA,NA,NA,NA,image-keyboard-response,120,1304147,0.0-7.0-1.0-0.18,74,Study 74,Session 74,NA,460,img/testing_events/Ab/Test_Ab_Event_7.jpg,u,response,c,NA,FALSE,Ab
NA,NA,NA,NA,NA,image-keyboard-response,121,1304642,0.0-7.0-1.0-0.19,74,Study 74,Session 74,NA,494,img/testing_events/Ab/Test_Ab_Event_4.jpg,e,response,n,NA,FALSE,Ab
NA,NA,NA,NA,NA,image-keyboard-response,122,1305570,0.0-7.0-1.0-0.20,74,Study 74,Session 74,NA,927,img/testing_events/Ab/Test_Ab_Event_11.jpg,n,response,c,NA,FALSE,Ab
NA,NA,NA,NA,NA,image-keyboard-response,123,1305979,0.0-7.0-1.0-0.21,74,Study 74,Session 74,NA,407,img/testing_events/Ab/Test_Ab_Event_17.jpg,c,response,e,NA,FALSE,Ab
NA,NA,NA,NA,NA,image-keyboard-response,124,1306417,0.0-7.0-1.0-0.22,74,Study 74,Session 74,NA,438,img/testing_events/Ab/Test_Ab_Event_23.jpg,n,response,c,NA,FALSE,Ab
NA,NA,NA,NA,NA,image-keyboard-response,125,1306949,0.0-7.0-1.0-0.23,74,Study 74,Session 74,NA,531,img/testing_events/Ab/Test_Ab_Event_10.jpg,u,response,u,NA,TRUE,Ab
NA,NA,NA,NA,NA,image-keyboard-response,126,1307693,0.0-7.0-2.0-0.0,74,Study 74,Session 74,NA,743,img/testing_events/Ca/Test_Ca_Event_17.jpg,e,response,e,NA,TRUE,Ca
NA,NA,NA,NA,NA,image-keyboard-response,127,1308229,0.0-7.0-2.0-0.1,74,Study 74,Session 74,NA,535,img/testing_events/Ca/Test_Ca_Event_4.jpg,n,response,n,NA,TRUE,Ca
NA,NA,NA,NA,NA,image-keyboard-response,128,1308699,0.0-7.0-2.0-0.2,74,Study 74,Session 74,NA,469,img/testing_events/Ca/Test_Ca_Event_9.jpg,c,response,e,NA,FALSE,Ca
NA,NA,NA,NA,NA,image-keyboard-response,129,1309262,0.0-7.0-2.0-0.3,74,Study 74,Session 74,NA,562,img/testing_events/Ca/Test_Ca_Event_5.jpg,u,response,e,NA,FALSE,Ca
NA,NA,NA,NA,NA,image-keyboard-response,130,1309771,0.0-7.0-2.0-0.4,74,Study 74,Session 74,NA,508,img/testing_events/Ca/Test_Ca_Event_10.jpg,c,response,u,NA,FALSE,Ca
NA,NA,NA,NA,NA,image-keyboard-response,131,1310147,0.0-7.0-2.0-0.5,74,Study 74,Session 74,NA,374,img/testing_events/Ca/Test_Ca_Event_14.jpg,n,response,u,NA,FALSE,Ca
NA,NA,NA,NA,NA,image-keyboard-response,132,1310654,0.0-7.0-2.0-0.6,74,Study 74,Session 74,NA,506,img/testing_events/Ca/Test_Ca_Event_23.jpg,e,response,c,NA,FALSE,Ca
NA,NA,NA,NA,NA,image-keyboard-response,133,1311080,0.0-7.0-2.0-0.7,74,Study 74,Session 74,NA,425,img/testing_events/Ca/Test_Ca_Event_22.jpg,n,response,u,NA,FALSE,Ca
NA,NA,NA,NA,NA,image-keyboard-response,134,1311597,0.0-7.0-2.0-0.8,74,Study 74,Session 74,NA,516,img/testing_events/Ca/Test_Ca_Event_7.jpg,u,response,c,NA,FALSE,Ca
NA,NA,NA,NA,NA,image-keyboard-response,135,1312011,0.0-7.0-2.0-0.9,74,Study 74,Session 74,NA,413,img/testing_events/Ca/Test_Ca_Event_6.jpg,n,response,u,NA,FALSE,Ca
NA,NA,NA,NA,NA,image-keyboard-response,136,1312405,0.0-7.0-2.0-0.10,74,Study 74,Session 74,NA,394,img/testing_events/Ca/Test_Ca_Event_13.jpg,c,response,e,NA,FALSE,Ca
NA,NA,NA,NA,NA,image-keyboard-response,137,1312845,0.0-7.0-2.0-0.11,74,Study 74,Session 74,NA,439,img/testing_events/Ca/Test_Ca_Event_2.jpg,u,response,u,NA,TRUE,Ca
NA,NA,NA,NA,NA,image-keyboard-response,138,1313307,0.0-7.0-2.0-0.12,74,Study 74,Session 74,NA,461,img/testing_events/Ca/Test_Ca_Event_21.jpg,n,response,e,NA,FALSE,Ca
NA,NA,NA,NA,NA,image-keyboard-response,139,1313777,0.0-7.0-2.0-0.13,74,Study 74,Session 74,NA,468,img/testing_events/Ca/Test_Ca_Event_3.jpg,c,response,c,NA,TRUE,Ca
NA,NA,NA,NA,NA,image-keyboard-response,140,1314218,0.0-7.0-2.0-0.14,74,Study 74,Session 74,NA,441,img/testing_events/Ca/Test_Ca_Event_19.jpg,n,response,c,NA,FALSE,Ca
NA,NA,NA,NA,NA,image-keyboard-response,141,1314938,0.0-7.0-2.0-0.15,74,Study 74,Session 74,NA,719,img/testing_events/Ca/Test_Ca_Event_20.jpg,n,response,n,NA,TRUE,Ca
NA,NA,NA,NA,NA,image-keyboard-response,142,1315362,0.0-7.0-2.0-0.16,74,Study 74,Session 74,NA,423,img/testing_events/Ca/Test_Ca_Event_18.jpg,u,response,u,NA,TRUE,Ca
NA,NA,NA,NA,NA,image-keyboard-response,143,1315788,0.0-7.0-2.0-0.17,74,Study 74,Session 74,NA,425,img/testing_events/Ca/Test_Ca_Event_1.jpg,e,response,e,NA,TRUE,Ca
NA,NA,NA,NA,NA,image-keyboard-response,144,1316190,0.0-7.0-2.0-0.18,74,Study 74,Session 74,NA,401,img/testing_events/Ca/Test_Ca_Event_24.jpg,n,response,n,NA,TRUE,Ca
NA,NA,NA,NA,NA,image-keyboard-response,145,1316628,0.0-7.0-2.0-0.19,74,Study 74,Session 74,NA,437,img/testing_events/Ca/Test_Ca_Event_15.jpg,c,response,c,NA,TRUE,Ca
NA,NA,NA,NA,NA,image-keyboard-response,146,1317140,0.0-7.0-2.0-0.20,74,Study 74,Session 74,NA,512,img/testing_events/Ca/Test_Ca_Event_12.jpg,n,response,n,NA,TRUE,Ca
NA,NA,NA,NA,NA,image-keyboard-response,147,1317536,0.0-7.0-2.0-0.21,74,Study 74,Session 74,NA,395,img/testing_events/Ca/Test_Ca_Event_8.jpg,u,response,n,NA,FALSE,Ca
NA,NA,NA,NA,NA,image-keyboard-response,148,1319248,0.0-7.0-2.0-0.22,74,Study 74,Session 74,NA,1711,img/testing_events/Ca/Test_Ca_Event_11.jpg,c,response,c,NA,TRUE,Ca
NA,NA,NA,NA,NA,image-keyboard-response,149,1322731,0.0-7.0-2.0-0.23,74,Study 74,Session 74,NA,3482,img/testing_events/Ca/Test_Ca_Event_16.jpg,n,response,n,NA,TRUE,Ca
NA,NA,NA,NA,NA,image-keyboard-response,150,1323398,0.0-7.0-3.0-0.0,74,Study 74,Session 74,NA,665,img/testing_events/Ba/Test_Ba_Event_13.jpg,u,response,c,NA,FALSE,Ba
NA,NA,NA,NA,NA,image-keyboard-response,151,1324578,0.0-7.0-3.0-0.1,74,Study 74,Session 74,NA,1179,img/testing_events/Ba/Test_Ba_Event_23.jpg,c,response,e,NA,FALSE,Ba
NA,NA,NA,NA,NA,image-keyboard-response,152,1325065,0.0-7.0-3.0-0.2,74,Study 74,Session 74,NA,487,img/testing_events/Ba/Test_Ba_Event_17.jpg,e,response,c,NA,FALSE,Ba
NA,NA,NA,NA,NA,image-keyboard-response,153,1325385,0.0-7.0-3.0-0.3,74,Study 74,Session 74,NA,319,img/testing_events/Ba/Test_Ba_Event_7.jpg,n,response,e,NA,FALSE,Ba
NA,NA,NA,NA,NA,image-keyboard-response,154,1325899,0.0-7.0-3.0-0.4,74,Study 74,Session 74,NA,513,img/testing_events/Ba/Test_Ba_Event_8.jpg,n,response,u,NA,FALSE,Ba
NA,NA,NA,NA,NA,image-keyboard-response,155,1325920,0.0-7.0-3.0-0.5,74,Study 74,Session 74,NA,20,img/testing_events/Ba/Test_Ba_Event_20.jpg,u,response,u,NA,TRUE,Ba
NA,NA,NA,NA,NA,image-keyboard-response,156,1326392,0.0-7.0-3.0-0.6,74,Study 74,Session 74,NA,472,img/testing_events/Ba/Test_Ba_Event_24.jpg,e,response,u,NA,FALSE,Ba
NA,NA,NA,NA,NA,image-keyboard-response,157,1326842,0.0-7.0-3.0-0.7,74,Study 74,Session 74,NA,449,img/testing_events/Ba/Test_Ba_Event_16.jpg,c,response,u,NA,FALSE,Ba
NA,NA,NA,NA,NA,image-keyboard-response,158,1327245,0.0-7.0-3.0-0.8,74,Study 74,Session 74,NA,401,img/testing_events/Ba/Test_Ba_Event_3.jpg,n,response,e,NA,FALSE,Ba
NA,NA,NA,NA,NA,image-keyboard-response,159,1327675,0.0-7.0-3.0-0.9,74,Study 74,Session 74,NA,429,img/testing_events/Ba/Test_Ba_Event_12.jpg,u,response,u,NA,TRUE,Ba
NA,NA,NA,NA,NA,image-keyboard-response,160,1328098,0.0-7.0-3.0-0.10,74,Study 74,Session 74,NA,422,img/testing_events/Ba/Test_Ba_Event_21.jpg,e,response,c,NA,FALSE,Ba
NA,NA,NA,NA,NA,image-keyboard-response,161,1328435,0.0-7.0-3.0-0.11,74,Study 74,Session 74,NA,336,img/testing_events/Ba/Test_Ba_Event_15.jpg,u,response,e,NA,FALSE,Ba
NA,NA,NA,NA,NA,image-keyboard-response,162,1328778,0.0-7.0-3.0-0.12,74,Study 74,Session 74,NA,342,img/testing_events/Ba/Test_Ba_Event_1.jpg,c,response,c,NA,TRUE,Ba
NA,NA,NA,NA,NA,image-keyboard-response,163,1329066,0.0-7.0-3.0-0.13,74,Study 74,Session 74,NA,287,img/testing_events/Ba/Test_Ba_Event_6.jpg,n,response,n,NA,TRUE,Ba
NA,NA,NA,NA,NA,image-keyboard-response,164,1329486,0.0-7.0-3.0-0.14,74,Study 74,Session 74,NA,419,img/testing_events/Ba/Test_Ba_Event_10.jpg,e,response,n,NA,FALSE,Ba
NA,NA,NA,NA,NA,image-keyboard-response,165,1329830,0.0-7.0-3.0-0.15,74,Study 74,Session 74,NA,343,img/testing_events/Ba/Test_Ba_Event_5.jpg,u,response,c,NA,FALSE,Ba
NA,NA,NA,NA,NA,image-keyboard-response,166,1330244,0.0-7.0-3.0-0.16,74,Study 74,Session 74,NA,414,img/testing_events/Ba/Test_Ba_Event_2.jpg,c,response,n,NA,FALSE,Ba
NA,NA,NA,NA,NA,image-keyboard-response,167,1330626,0.0-7.0-3.0-0.17,74,Study 74,Session 74,NA,380,img/testing_events/Ba/Test_Ba_Event_11.jpg,n,response,e,NA,FALSE,Ba
NA,NA,NA,NA,NA,image-keyboard-response,168,1331211,0.0-7.0-3.0-0.18,74,Study 74,Session 74,NA,584,img/testing_events/Ba/Test_Ba_Event_19.jpg,c,response,e,NA,FALSE,Ba
NA,NA,NA,NA,NA,image-keyboard-response,169,1331613,0.0-7.0-3.0-0.19,74,Study 74,Session 74,NA,401,img/testing_events/Ba/Test_Ba_Event_22.jpg,n,response,n,NA,TRUE,Ba
NA,NA,NA,NA,NA,image-keyboard-response,170,1332155,0.0-7.0-3.0-0.20,74,Study 74,Session 74,NA,541,img/testing_events/Ba/Test_Ba_Event_14.jpg,c,response,n,NA,FALSE,Ba
NA,NA,NA,NA,NA,image-keyboard-response,171,1332499,0.0-7.0-3.0-0.21,74,Study 74,Session 74,NA,342,img/testing_events/Ba/Test_Ba_Event_9.jpg,n,response,c,NA,FALSE,Ba
NA,NA,NA,NA,NA,image-keyboard-response,172,1332990,0.0-7.0-3.0-0.22,74,Study 74,Session 74,NA,490,img/testing_events/Ba/Test_Ba_Event_18.jpg,c,response,n,NA,FALSE,Ba
NA,NA,NA,NA,NA,image-keyboard-response,173,1333492,0.0-7.0-3.0-0.23,74,Study 74,Session 74,NA,502,img/testing_events/Ba/Test_Ba_Event_4.jpg,n,response,u,NA,FALSE,Ba
NA,NA,NA,NA,NA,image-keyboard-response,174,1334057,0.0-7.0-4.0-0.0,74,Study 74,Session 74,NA,564,img/testing_events/Bc/Test_Bc_Event_6.jpg,c,response,e,NA,FALSE,Bc
NA,NA,NA,NA,NA,image-keyboard-response,175,1334525,0.0-7.0-4.0-0.1,74,Study 74,Session 74,NA,466,img/testing_events/Bc/Test_Bc_Event_19.jpg,n,response,u,NA,FALSE,Bc
NA,NA,NA,NA,NA,image-keyboard-response,176,1335164,0.0-7.0-4.0-0.2,74,Study 74,Session 74,NA,639,img/testing_events/Bc/Test_Bc_Event_11.jpg,e,response,u,NA,FALSE,Bc
NA,NA,NA,NA,NA,image-keyboard-response,177,1335607,0.0-7.0-4.0-0.3,74,Study 74,Session 74,NA,442,img/testing_events/Bc/Test_Bc_Event_14.jpg,u,response,e,NA,FALSE,Bc
NA,NA,NA,NA,NA,image-keyboard-response,178,1336115,0.0-7.0-4.0-0.4,74,Study 74,Session 74,NA,508,img/testing_events/Bc/Test_Bc_Event_3.jpg,c,response,u,NA,FALSE,Bc
NA,NA,NA,NA,NA,image-keyboard-response,179,1336466,0.0-7.0-4.0-0.5,74,Study 74,Session 74,NA,349,img/testing_events/Bc/Test_Bc_Event_22.jpg,n,response,e,NA,FALSE,Bc
NA,NA,NA,NA,NA,image-keyboard-response,180,1337058,0.0-7.0-4.0-0.6,74,Study 74,Session 74,NA,591,img/testing_events/Bc/Test_Bc_Event_15.jpg,c,response,u,NA,FALSE,Bc
NA,NA,NA,NA,NA,image-keyboard-response,181,1337426,0.0-7.0-4.0-0.7,74,Study 74,Session 74,NA,367,img/testing_events/Bc/Test_Bc_Event_1.jpg,n,response,n,NA,TRUE,Bc
NA,NA,NA,NA,NA,image-keyboard-response,182,1338003,0.0-7.0-4.0-0.8,74,Study 74,Session 74,NA,576,img/testing_events/Bc/Test_Bc_Event_18.jpg,c,response,e,NA,FALSE,Bc
NA,NA,NA,NA,NA,image-keyboard-response,183,1338549,0.0-7.0-4.0-0.9,74,Study 74,Session 74,NA,546,img/testing_events/Bc/Test_Bc_Event_12.jpg,n,response,c,NA,FALSE,Bc
NA,NA,NA,NA,NA,image-keyboard-response,184,1338978,0.0-7.0-4.0-0.10,74,Study 74,Session 74,NA,428,img/testing_events/Bc/Test_Bc_Event_21.jpg,c,response,n,NA,FALSE,Bc
NA,NA,NA,NA,NA,image-keyboard-response,185,1339715,0.0-7.0-4.0-0.11,74,Study 74,Session 74,NA,736,img/testing_events/Bc/Test_Bc_Event_24.jpg,n,response,c,NA,FALSE,Bc
NA,NA,NA,NA,NA,image-keyboard-response,186,1340465,0.0-7.0-4.0-0.12,74,Study 74,Session 74,NA,749,img/testing_events/Bc/Test_Bc_Event_4.jpg,e,response,c,NA,FALSE,Bc
NA,NA,NA,NA,NA,image-keyboard-response,187,1340851,0.0-7.0-4.0-0.13,74,Study 74,Session 74,NA,385,img/testing_events/Bc/Test_Bc_Event_8.jpg,u,response,c,NA,FALSE,Bc
NA,NA,NA,NA,NA,image-keyboard-response,188,1342302,0.0-7.0-4.0-0.14,74,Study 74,Session 74,NA,1450,img/testing_events/Bc/Test_Bc_Event_16.jpg,c,response,c,NA,TRUE,Bc
NA,NA,NA,NA,NA,image-keyboard-response,189,1343604,0.0-7.0-4.0-0.15,74,Study 74,Session 74,NA,1302,img/testing_events/Bc/Test_Bc_Event_10.jpg,n,response,e,NA,FALSE,Bc
NA,NA,NA,NA,NA,image-keyboard-response,190,1348120,0.0-7.0-4.0-0.16,74,Study 74,Session 74,NA,4515,img/testing_events/Bc/Test_Bc_Event_17.jpg,u,response,n,NA,FALSE,Bc
NA,NA,NA,NA,NA,image-keyboard-response,191,1351097,0.0-7.0-4.0-0.17,74,Study 74,Session 74,NA,2976,img/testing_events/Bc/Test_Bc_Event_23.jpg,e,response,u,NA,FALSE,Bc
NA,NA,NA,NA,NA,image-keyboard-response,192,1354236,0.0-7.0-4.0-0.18,74,Study 74,Session 74,NA,3138,img/testing_events/Bc/Test_Bc_Event_13.jpg,e,response,n,NA,FALSE,Bc
NA,NA,NA,NA,NA,image-keyboard-response,193,1357621,0.0-7.0-4.0-0.19,74,Study 74,Session 74,NA,3384,img/testing_events/Bc/Test_Bc_Event_5.jpg,n,response,n,NA,TRUE,Bc
NA,NA,NA,NA,NA,image-keyboard-response,194,1359410,0.0-7.0-4.0-0.20,74,Study 74,Session 74,NA,1788,img/testing_events/Bc/Test_Bc_Event_2.jpg,u,response,e,NA,FALSE,Bc
NA,NA,NA,NA,NA,image-keyboard-response,195,1362788,0.0-7.0-4.0-0.21,74,Study 74,Session 74,NA,3377,img/testing_events/Bc/Test_Bc_Event_9.jpg,n,response,n,NA,TRUE,Bc
NA,NA,NA,NA,NA,image-keyboard-response,196,1365003,0.0-7.0-4.0-0.22,74,Study 74,Session 74,NA,2214,img/testing_events/Bc/Test_Bc_Event_7.jpg,u,response,u,NA,TRUE,Bc
NA,NA,NA,NA,NA,image-keyboard-response,197,1366718,0.0-7.0-4.0-0.23,74,Study 74,Session 74,NA,1713,img/testing_events/Bc/Test_Bc_Event_20.jpg,n,response,c,NA,FALSE,Bc
NA,NA,NA,NA,NA,image-keyboard-response,198,1368811,0.0-7.0-5.0-0.0,74,Study 74,Session 74,NA,2092,img/testing_events/Cb/Test_Cb_Event_23.jpg,e,response,n,NA,FALSE,Cb
NA,NA,NA,NA,NA,image-keyboard-response,199,1369277,0.0-7.0-5.0-0.1,74,Study 74,Session 74,NA,465,img/testing_events/Cb/Test_Cb_Event_21.jpg,c,response,u,NA,FALSE,Cb
NA,NA,NA,NA,NA,image-keyboard-response,200,1369690,0.0-7.0-5.0-0.2,74,Study 74,Session 74,NA,412,img/testing_events/Cb/Test_Cb_Event_5.jpg,n,response,u,NA,FALSE,Cb
NA,NA,NA,NA,NA,image-keyboard-response,201,1370456,0.0-7.0-5.0-0.3,74,Study 74,Session 74,NA,765,img/testing_events/Cb/Test_Cb_Event_22.jpg,u,response,c,NA,FALSE,Cb
NA,NA,NA,NA,NA,image-keyboard-response,202,1370482,0.0-7.0-5.0-0.4,74,Study 74,Session 74,NA,25,img/testing_events/Cb/Test_Cb_Event_17.jpg,n,response,u,NA,FALSE,Cb
NA,NA,NA,NA,NA,image-keyboard-response,203,1371297,0.0-7.0-5.0-0.5,74,Study 74,Session 74,NA,814,img/testing_events/Cb/Test_Cb_Event_3.jpg,u,response,n,NA,FALSE,Cb
NA,NA,NA,NA,NA,image-keyboard-response,204,1374474,0.0-7.0-5.0-0.6,74,Study 74,Session 74,NA,3175,img/testing_events/Cb/Test_Cb_Event_4.jpg,e,response,e,NA,TRUE,Cb
NA,NA,NA,NA,NA,image-keyboard-response,205,1375217,0.0-7.0-5.0-0.7,74,Study 74,Session 74,NA,742,img/testing_events/Cb/Test_Cb_Event_12.jpg,n,response,e,NA,FALSE,Cb
NA,NA,NA,NA,NA,image-keyboard-response,206,1375666,0.0-7.0-5.0-0.8,74,Study 74,Session 74,NA,448,img/testing_events/Cb/Test_Cb_Event_14.jpg,c,response,c,NA,TRUE,Cb
NA,NA,NA,NA,NA,image-keyboard-response,207,1376060,0.0-7.0-5.0-0.9,74,Study 74,Session 74,NA,392,img/testing_events/Cb/Test_Cb_Event_8.jpg,u,response,e,NA,FALSE,Cb
NA,NA,NA,NA,NA,image-keyboard-response,208,1376459,0.0-7.0-5.0-0.10,74,Study 74,Session 74,NA,398,img/testing_events/Cb/Test_Cb_Event_13.jpg,c,response,u,NA,FALSE,Cb
NA,NA,NA,NA,NA,image-keyboard-response,209,1376500,0.0-7.0-5.0-0.11,74,Study 74,Session 74,NA,40,img/testing_events/Cb/Test_Cb_Event_24.jpg,e,response,e,NA,TRUE,Cb
NA,NA,NA,NA,NA,image-keyboard-response,210,1376835,0.0-7.0-5.0-0.12,74,Study 74,Session 74,NA,334,img/testing_events/Cb/Test_Cb_Event_15.jpg,u,response,n,NA,FALSE,Cb
NA,NA,NA,NA,NA,image-keyboard-response,211,1377191,0.0-7.0-5.0-0.13,74,Study 74,Session 74,NA,355,img/testing_events/Cb/Test_Cb_Event_11.jpg,n,response,n,NA,TRUE,Cb
NA,NA,NA,NA,NA,image-keyboard-response,212,1377290,0.0-7.0-5.0-0.14,74,Study 74,Session 74,NA,99,img/testing_events/Cb/Test_Cb_Event_1.jpg,u,response,u,NA,TRUE,Cb
NA,NA,NA,NA,NA,image-keyboard-response,213,1380388,0.0-7.0-5.0-0.15,74,Study 74,Session 74,NA,3097,img/testing_events/Cb/Test_Cb_Event_16.jpg,e,response,e,NA,TRUE,Cb
NA,NA,NA,NA,NA,image-keyboard-response,214,1380859,0.0-7.0-5.0-0.16,74,Study 74,Session 74,NA,469,img/testing_events/Cb/Test_Cb_Event_9.jpg,c,response,u,NA,FALSE,Cb
NA,NA,NA,NA,NA,image-keyboard-response,215,1381123,0.0-7.0-5.0-0.17,74,Study 74,Session 74,NA,263,img/testing_events/Cb/Test_Cb_Event_20.jpg,n,response,e,NA,FALSE,Cb
NA,NA,NA,NA,NA,image-keyboard-response,216,1381578,0.0-7.0-5.0-0.18,74,Study 74,Session 74,NA,454,img/testing_events/Cb/Test_Cb_Event_2.jpg,u,response,c,NA,FALSE,Cb
NA,NA,NA,NA,NA,image-keyboard-response,217,1381923,0.0-7.0-5.0-0.19,74,Study 74,Session 74,NA,344,img/testing_events/Cb/Test_Cb_Event_6.jpg,e,response,c,NA,FALSE,Cb
NA,NA,NA,NA,NA,image-keyboard-response,218,1382243,0.0-7.0-5.0-0.20,74,Study 74,Session 74,NA,319,img/testing_events/Cb/Test_Cb_Event_18.jpg,n,response,c,NA,FALSE,Cb
NA,NA,NA,NA,NA,image-keyboard-response,219,1382548,0.0-7.0-5.0-0.21,74,Study 74,Session 74,NA,304,img/testing_events/Cb/Test_Cb_Event_10.jpg,c,response,c,NA,TRUE,Cb
NA,NA,NA,NA,NA,image-keyboard-response,220,1382800,0.0-7.0-5.0-0.22,74,Study 74,Session 74,NA,252,img/testing_events/Cb/Test_Cb_Event_7.jpg,u,response,n,NA,FALSE,Cb
NA,NA,NA,NA,NA,image-keyboard-response,221,1383116,0.0-7.0-5.0-0.23,74,Study 74,Session 74,NA,315,img/testing_events/Cb/Test_Cb_Event_19.jpg,e,response,n,NA,FALSE,Cb
NA,NA,NA,NA,NA,survey-text,222,1403871,0.0-8.0,74,Study 74,Session 74,NA,20743,NA,"{""Q0"":""NO"",""Q1"":""NO"",""Q2"":""NO""}",NA,NA,NA,NA,NA
NA,NA,NA,NA,NA,survey-html-form,223,1446783,0.0-9.0,74,Study 74,Session 74,NA,42911,NA,"{""Gender"":""Male"",""Age"":""25"",""ColorBlind"":""No"",""Education"":""Some College, no degree"",""Income"":""$75,000-$99,999"",""Race"":""Black"",""Fluent"":""Yes"",""AgeEnglish"":""0"",""Country"":""UNITED STATES""}",NA,NA,NA,NA,NA
TRUE,NA,NA,NA,NA,fullscreen,224,1446784,0.0-10.0,74,Study 74,Session 74,NA,NA,NA,NA,NA,NA,NA,NA,NA
