success,timeout,failed_images,failed_audio,failed_video,trial_type,trial_index,time_elapsed,internal_node_id,subject_id,study_id,session_id,view_history,rt,stimulus,response,task,correct_response,attention_duration,correct,retrieval_group
TRUE,FALSE,[],[],[],preload,0,2420,0.0-0.0,75,Study 75,Session 75,NA,NA,NA,NA,NA,NA,NA,NA,NA
TRUE,NA,NA,NA,NA,fullscreen,1,6045,0.0-1.0,75,Study 75,Session 75,NA,NA,NA,NA,NA,NA,NA,NA,NA
NA,NA,NA,NA,NA,instructions,2,7605,0.0-2.0,75,Study 75,Session 75,"[{""page_index"":0,""viewing_time"":1559}]",1559,NA,NA,NA,NA,NA,NA,NA
NA,NA,NA,NA,NA,html-keyboard-response,3,12416,0.0-3.0,75,Study 75,Session 75,NA,4810,"Welcome to the experiment. <br /><br />This experiment will take about 20 minutes. Please complete all in one sitting. <br /><br />For this study, <strong>please use</strong> a laptop or desktop computer (not a mobile phone or tablet). Also, please use either <u>Chrome or Firefox</u>. <br /><br />Once you begin, <strong>DO NOT</strong> refresh the browser, as the experiment will reset and you will lose your progress. <br /><br />Press the <strong class=""upperline"">B</strong> key on your keyboard to begin.",b,NA,NA,NA,NA,NA
NA,NA,NA,NA,NA,instructions,4,25162,0.0-4.0,75,Study 75,Session 75,"[{""page_index"":0,""viewing_time"":3671},{""page_index"":1,""viewing_time"":5955},{""page_index"":2,""viewing_time"":2115}]",11742,NA,NA,NA,NA,NA,NA,NA
NA,NA,NA,NA,NA,html-keyboard-response,5,28169,0.0-5.0-0.0,75,Study 75,Session 75,NA,null,"<div style=""font-size:60px;"">+</div>",null,fixation,NA,NA,NA,NA
NA,NA,NA,NA,NA,image-keyboard-response,6,34185,0.0-5.0-1.0,75,Study 75,Session 75,NA,null,img/encoding_events/Event_4.jpg,null,NA,NA,NA,NA,NA
NA,NA,NA,NA,NA,html-keyboard-response,7,34193,0.0-5.0-2.0,75,Study 75,Session 75,NA,null,Please press the <strong><u>j</u></strong> key to continue,null,response,j,0,FALSE,NA
NA,NA,NA,NA,NA,html-keyboard-response,8,34696,0.0-5.0-0.1,75,Study 75,Session 75,NA,null,"<div style=""font-size:60px;"">+</div>",null,fixation,NA,NA,NA,NA
NA,NA,NA,NA,NA,image-keyboard-response,9,40700,0.0-5.0-1.1,75,Study 75,Session 75,NA,null,img/encoding_events/Event_9.jpg,null,NA,NA,NA,NA,NA
NA,NA,NA,NA,NA,html-keyboard-response,10,40706,0.0-5.0-2.1,75,Study 75,Session 75,NA,null,Please press the <strong><u>a</u></strong> key to continue,null,response,a,0,FALSE,NA
NA,NA,NA,NA,NA,html-keyboard-response,11,41215,0.0-5.0-0.2,75,Study 75,Session 75,NA,null,"<div style=""font-size:60px;"">+</div>",null,fixation,NA,NA,NA,NA
NA,NA,NA,NA,NA,image-keyboard-response,12,47230,0.0-5.0-1.2,75,Study 75,Session 75,NA,null,img/encoding_events/Event_10.jpg,null,NA,NA,NA,NA,NA
NA,NA,NA,NA,NA,html-keyboard-response,13,47236,0.0-5.0-2.2,75,Study 75,Session 75,NA,null,Please press the <strong><u>d</u></strong> key to continue,null,response,d,0,FALSE,NA
NA,NA,NA,NA,NA,html-keyboard-response,14,47750,0.0-5.0-0.3,75,Study 75,Session 75,NA,null,"<div style=""font-size:60px;"">+</div>",null,fixation,NA,NA,NA,NA
NA,NA,NA,NA,NA,image-keyboard-response,15,53765,0.0-5.0-1.3,75,Study 75,Session 75,NA,null,img/encoding_events/Event_3.jpg,null,NA,NA,NA,NA,NA
NA,NA,NA,NA,NA,html-keyboard-response,16,55411,0.0-5.0-2.3,75,Study 75,Session 75,NA,1646,Please press the <strong><u>k</u></strong> key to continue,k,response,k,6000,TRUE,NA
NA,NA,NA,NA,NA,html-keyboard-response,17,55925,0.0-5.0-0.4,75,Study 75,Session 75,NA,null,"<div style=""font-size:60px;"">+</div>",null,fixation,NA,NA,NA,NA
NA,NA,NA,NA,NA,image-keyboard-response,18,61942,0.0-5.0-1.4,75,Study 75,Session 75,NA,null,img/encoding_events/Event_6.jpg,null,NA,NA,NA,NA,NA
NA,NA,NA,NA,NA,html-keyboard-response,19,61945,0.0-5.0-2.4,75,Study 75,Session 75,NA,null,Please press the <strong><u>f</u></strong> key to continue,null,response,f,0,FALSE,NA
NA,NA,NA,NA,NA,html-keyboard-response,20,62455,0.0-5.0-0.5,75,Study 75,Session 75,NA,null,"<div style=""font-size:60px;"">+</div>",null,fixation,NA,NA,NA,NA
NA,NA,NA,NA,NA,image-keyboard-response,21,68463,0.0-5.0-1.5,75,Study 75,Session 75,NA,null,img/encoding_events/Event_21.jpg,null,NA,NA,NA,NA,NA
NA,NA,NA,NA,NA,html-keyboard-response,22,68468,0.0-5.0-2.5,75,Study 75,Session 75,NA,null,Please press the <strong><u>j</u></strong> key to continue,null,response,j,0,FALSE,NA
NA,NA,NA,NA,NA,html-keyboard-response,23,68973,0.0-5.0-0.6,75,Study 75,Session 75,NA,null,"<div style=""font-size:60px;"">+</div>",null,fixation,NA,NA,NA,NA
NA,NA,NA,NA,NA,image-keyboard-response,24,74975,0.0-5.0-1.6,75,Study 75,Session 75,NA,null,img/encoding_events/Event_1.jpg,null,NA,NA,NA,NA,NA
NA,NA,NA,NA,NA,html-keyboard-response,25,74980,0.0-5.0-2.6,75,Study 75,Session 75,NA,null,Please press the <strong><u>k</u></strong> key to continue,null,response,k,0,FALSE,NA
NA,NA,NA,NA,NA,html-keyboard-response,26,75496,0.0-5.0-0.7,75,Study 75,Session 75,NA,null,"<div style=""font-size:60px;"">+</div>",null,fixation,NA,NA,NA,NA
NA,NA,NA,NA,NA,image-keyboard-response,27,81498,0.0-5.0-1.7,75,Study 75,Session 75,NA,null,img/encoding_events/Event_16.jpg,null,NA,NA,NA,NA,NA
NA,NA,NA,NA,NA,html-keyboard-response,28,82877,0.0-5.0-2.7,75,Study 75,Session 75,NA,1378,Please press the <strong><u>d</u></strong> key to continue,d,response,d,6000,TRUE,NA
NA,NA,NA,NA,NA,html-keyboard-response,29,83389,0.0-5.0-0.8,75,Study 75,Session 75,NA,null,"<div style=""font-size:60px;"">+</div>",null,fixation,NA,NA,NA,NA
NA,NA,NA,NA,NA,image-keyboard-response,30,89396,0.0-5.0-1.8,75,Study 75,Session 75,NA,null,img/encoding_events/Event_22.jpg,null,NA,NA,NA,NA,NA
NA,NA,NA,NA,NA,html-keyboard-response,31,89398,0.0-5.0-2.8,75,Study 75,Session 75,NA,null,Please press the <strong><u>k</u></strong> key to continue,null,response,k,0,FALSE,NA
NA,NA,NA,NA,NA,html-keyboard-response,32,89914,0.0-5.0-0.9,75,Study 75,Session 75,NA,null,"<div style=""font-size:60px;"">+</div>",null,fixation,NA,NA,NA,NA
NA,NA,NA,NA,NA,image-keyboard-response,33,95931,0.0-5.0-1.9,75,Study 75,Session 75,NA,null,img/encoding_events/Event_20.jpg,null,NA,NA,NA,NA,NA
NA,NA,NA,NA,NA,html-keyboard-response,34,95937,0.0-5.0-2.9,75,Study 75,Session 75,NA,null,Please press the <strong><u>k</u></strong> key to continue,null,response,k,0,FALSE,NA
NA,NA,NA,NA,NA,html-keyboard-response,35,96451,0.0-5.0-0.10,75,Study 75,Session 75,NA,null,"<div style=""font-size:60px;"">+</div>",null,fixation,NA,NA,NA,NA
NA,NA,NA,NA,NA,image-keyboard-response,36,102460,0.0-5.0-1.10,75,Study 75,Session 75,NA,null,img/encoding_events/Event_2.jpg,null,NA,NA,NA,NA,NA
NA,NA,NA,NA,NA,html-keyboard-response,37,102465,0.0-5.0-2.10,75,Study 75,Session 75,NA,null,Please press the <strong><u>a</u></strong> key to continue,null,response,a,0,FALSE,NA
NA,NA,NA,NA,NA,html-keyboard-response,38,102977,0.0-5.0-0.11,75,Study 75,Session 75,NA,null,"<div style=""font-size:60px;"">+</div>",null,fixation,NA,NA,NA,NA
NA,NA,NA,NA,NA,image-keyboard-response,39,108986,0.0-5.0-1.11,75,Study 75,Session 75,NA,null,img/encoding_events/Event_7.jpg,null,NA,NA,NA,NA,NA
NA,NA,NA,NA,NA,html-keyboard-response,40,110452,0.0-5.0-2.11,75,Study 75,Session 75,NA,1466,Please press the <strong><u>a</u></strong> key to continue,a,response,a,6000,TRUE,NA
NA,NA,NA,NA,NA,html-keyboard-response,41,110956,0.0-5.0-0.12,75,Study 75,Session 75,NA,null,"<div style=""font-size:60px;"">+</div>",null,fixation,NA,NA,NA,NA
NA,NA,NA,NA,NA,image-keyboard-response,42,116970,0.0-5.0-1.12,75,Study 75,Session 75,NA,null,img/encoding_events/Event_19.jpg,null,NA,NA,NA,NA,NA
NA,NA,NA,NA,NA,html-keyboard-response,43,116972,0.0-5.0-2.12,75,Study 75,Session 75,NA,null,Please press the <strong><u>k</u></strong> key to continue,null,response,k,0,FALSE,NA
NA,NA,NA,NA,NA,html-keyboard-response,44,117489,0.0-5.0-0.13,75,Study 75,Session 75,NA,null,"<div style=""font-size:60px;"">+</div>",null,fixation,NA,NA,NA,NA
NA,NA,NA,NA,NA,image-keyboard-response,45,123504,0.0-5.0-1.13,75,Study 75,Session 75,NA,null,img/encoding_events/Event_15.jpg,null,NA,NA,NA,NA,NA
NA,NA,NA,NA,NA,html-keyboard-response,46,123510,0.0-5.0-2.13,75,Study 75,Session 75,NA,null,Please press the <strong><u>f</u></strong> key to continue,null,response,f,0,FALSE,NA
NA,NA,NA,NA,NA,html-keyboard-response,47,124011,0.0-5.0-0.14,75,Study 75,Session 75,NA,null,"<div style=""font-size:60px;"">+</div>",null,fixation,NA,NA,NA,NA
NA,NA,NA,NA,NA,image-keyboard-response,48,130013,0.0-5.0-1.14,75,Study 75,Session 75,NA,null,img/encoding_events/Event_17.jpg,null,NA,NA,NA,NA,NA
NA,NA,NA,NA,NA,html-keyboard-response,49,130018,0.0-5.0-2.14,75,Study 75,Session 75,NA,null,Please press the <strong><u>d</u></strong> key to continue,null,response,d,0,FALSE,NA
NA,NA,NA,NA,NA,html-keyboard-response,50,130531,0.0-5.0-0.15,75,Study 75,Session 75,NA,null,"<div style=""font-size:60px;"">+</div>",null,fixation,NA,NA,NA,NA
NA,NA,NA,NA,NA,image-keyboard-response,51,136541,0.0-5.0-1.15,75,Study 75,Session 75,NA,null,img/encoding_events/Event_18.jpg,null,NA,NA,NA,NA,NA
NA,NA,NA,NA,NA,html-keyboard-response,52,138334,0.0-5.0-2.15,75,Study 75,Session 75,NA,1792,Please press the <strong><u>f</u></strong> key to continue,f,response,f,6000,TRUE,NA
NA,NA,NA,NA,NA,html-keyboard-response,53,138840,0.0-5.0-0.16,75,Study 75,Session 75,NA,null,"<div style=""font-size:60px;"">+</div>",null,fixation,NA,NA,NA,NA
NA,NA,NA,NA,NA,image-keyboard-response,54,144854,0.0-5.0-1.16,75,Study 75,Session 75,NA,null,img/encoding_events/Event_12.jpg,null,NA,NA,NA,NA,NA
NA,NA,NA,NA,NA,html-keyboard-response,55,144855,0.0-5.0-2.16,75,Study 75,Session 75,NA,null,Please press the <strong><u>k</u></strong> key to continue,null,response,k,0,FALSE,NA
NA,NA,NA,NA,NA,html-keyboard-response,56,145360,0.0-5.0-0.17,75,Study 75,Session 75,NA,null,"<div style=""font-size:60px;"">+</div>",null,fixation,NA,NA,NA,NA
NA,NA,NA,NA,NA,image-keyboard-response,57,151367,0.0-5.0-1.17,75,Study 75,Session 75,NA,null,img/encoding_events/Event_13.jpg,null,NA,NA,NA,NA,NA
NA,NA,NA,NA,NA,html-keyboard-response,58,151372,0.0-5.0-2.17,75,Study 75,Session 75,NA,null,Please press the <strong><u>d</u></strong> key to continue,null,response,d,0,FALSE,NA
NA,NA,NA,NA,NA,html-keyboard-response,59,151875,0.0-5.0-0.18,75,Study 75,Session 75,NA,null,"<div style=""font-size:60px;"">+</div>",null,fixation,NA,NA,NA,NA
NA,NA,NA,NA,NA,image-keyboard-response,60,157888,0.0-5.0-1.18,75,Study 75,Session 75,NA,null,img/encoding_events/Event_24.jpg,null,NA,NA,NA,NA,NA
NA,NA,NA,NA,NA,html-keyboard-response,61,157893,0.0-5.0-2.18,75,Study 75,Session 75,NA,null,Please press the <strong><u>j</u></strong> key to continue,null,response,j,0,FALSE,NA
NA,NA,NA,NA,NA,html-keyboard-response,62,158394,0.0-5.0-0.19,75,Study 75,Session 75,NA,null,"<div style=""font-size:60px;"">+</div>",null,fixation,NA,NA,NA,NA
NA,NA,NA,NA,NA,image-keyboard-response,63,164400,0.0-5.0-1.19,75,Study 75,Session 75,NA,null,img/encoding_events/Event_5.jpg,null,NA,NA,NA,NA,NA
NA,NA,NA,NA,NA,html-keyboard-response,64,165835,0.0-5.0-2.19,75,Study 75,Session 75,NA,1434,Please press the <strong><u>j</u></strong> key to continue,j,response,j,6000,TRUE,NA
NA,NA,NA,NA,NA,html-keyboard-response,65,166346,0.0-5.0-0.20,75,Study 75,Session 75,NA,null,"<div style=""font-size:60px;"">+</div>",null,fixation,NA,NA,NA,NA
NA,NA,NA,NA,NA,image-keyboard-response,66,172363,0.0-5.0-1.20,75,Study 75,Session 75,NA,null,img/encoding_events/Event_11.jpg,null,NA,NA,NA,NA,NA
NA,NA,NA,NA,NA,html-keyboard-response,67,172365,0.0-5.0-2.20,75,Study 75,Session 75,NA,null,Please press the <strong><u>f</u></strong> key to continue,null,response,f,0,FALSE,NA
NA,NA,NA,NA,NA,html-keyboard-response,68,172872,0.0-5.0-0.21,75,Study 75,Session 75,NA,null,"<div style=""font-size:60px;"">+</div>",null,fixation,NA,NA,NA,NA
NA,NA,NA,NA,NA,image-keyboard-response,69,178879,0.0-5.0-1.21,75,Study 75,Session 75,NA,null,img/encoding_events/Event_14.jpg,null,NA,NA,NA,NA,NA
NA,NA,NA,NA,NA,html-keyboard-response,70,178885,0.0-5.0-2.21,75,Study 75,Session 75,NA,null,Please press the <strong><u>k</u></strong> key to continue,null,response,k,0,FALSE,NA
NA,NA,NA,NA,NA,html-keyboard-response,71,179390,0.0-5.0-0.22,75,Study 75,Session 75,NA,null,"<div style=""font-size:60px;"">+</div>",null,fixation,NA,NA,NA,NA
NA,NA,NA,NA,NA,image-keyboard-response,72,185394,0.0-5.0-1.22,75,Study 75,Session 75,NA,null,img/encoding_events/Event_23.jpg,null,NA,NA,NA,NA,NA
NA,NA,NA,NA,NA,html-keyboard-response,73,185400,0.0-5.0-2.22,75,Study 75,Session 75,NA,null,Please press the <strong><u>a</u></strong> key to continue,null,response,a,0,FALSE,NA
NA,NA,NA,NA,NA,html-keyboard-response,74,185913,0.0-5.0-0.23,75,Study 75,Session 75,NA,null,"<div style=""font-size:60px;"">+</div>",null,fixation,NA,NA,NA,NA
NA,NA,NA,NA,NA,image-keyboard-response,75,191918,0.0-5.0-1.23,75,Study 75,Session 75,NA,null,img/encoding_events/Event_8.jpg,null,NA,NA,NA,NA,NA
NA,NA,NA,NA,NA,html-keyboard-response,76,193620,0.0-5.0-2.23,75,Study 75,Session 75,NA,1702,Please press the <strong><u>s</u></strong> key to continue,s,response,s,6000,TRUE,NA
NA,NA,NA,NA,NA,instructions,77,222536,0.0-6.0,75,Study 75,Session 75,"[{""page_index"":0,""viewing_time"":1591},{""page_index"":1,""viewing_time"":4448},{""page_index"":2,""viewing_time"":10785},{""page_index"":3,""viewing_time"":4817},{""page_index"":4,""viewing_time"":3659},{""page_index"":5,""viewing_time"":1979},{""page_index"":6,""viewing_time"":1636}]",28915,NA,NA,NA,NA,NA,NA,NA
NA,NA,NA,NA,NA,image-keyboard-response,78,230842,0.0-7.0-0.0-0.0,75,Study 75,Session 75,NA,5788,img/testing_events/Cb/Test_Cb_Event_6.jpg,c,response,c,NA,TRUE,Cb
NA,NA,NA,NA,NA,image-keyboard-response,79,242138,0.0-7.0-0.0-0.1,75,Study 75,Session 75,NA,11295,img/testing_events/Cb/Test_Cb_Event_9.jpg,c,response,u,NA,FALSE,Cb
NA,NA,NA,NA,NA,image-keyboard-response,80,246173,0.0-7.0-0.0-0.2,75,Study 75,Session 75,NA,4033,img/testing_events/Cb/Test_Cb_Event_7.jpg,n,response,n,NA,TRUE,Cb
NA,NA,NA,NA,NA,image-keyboard-response,81,256552,0.0-7.0-0.0-0.3,75,Study 75,Session 75,NA,10386,img/testing_events/Cb/Test_Cb_Event_13.jpg,e,response,u,NA,FALSE,Cb
NA,NA,NA,NA,NA,image-keyboard-response,82,258994,0.0-7.0-0.0-0.4,75,Study 75,Session 75,NA,2440,img/testing_events/Cb/Test_Cb_Event_15.jpg,n,response,n,NA,TRUE,Cb
NA,NA,NA,NA,NA,image-keyboard-response,83,264500,0.0-7.0-0.0-0.5,75,Study 75,Session 75,NA,5505,img/testing_events/Cb/Test_Cb_Event_16.jpg,e,response,e,NA,TRUE,Cb
NA,NA,NA,NA,NA,image-keyboard-response,84,267976,0.0-7.0-0.0-0.6,75,Study 75,Session 75,NA,3475,img/testing_events/Cb/Test_Cb_Event_4.jpg,e,response,e,NA,TRUE,Cb
NA,NA,NA,NA,NA,image-keyboard-response,85,269908,0.0-7.0-0.0-0.7,75,Study 75,Session 75,NA,1930,img/testing_events/Cb/Test_Cb_Event_8.jpg,e,response,e,NA,TRUE,Cb
NA,NA,NA,NA,NA,image-keyboard-response,86,272767,0.0-7.0-0.0-0.8,75,Study 75,Session 75,NA,2858,img/testing_events/Cb/Test_Cb_Event_21.jpg,u,response,u,NA,TRUE,Cb
NA,NA,NA,NA,NA,image-keyboard-response,87,278023,0.0-7.0-0.0-0.9,75,Study 75,Session 75,NA,5255,img/testing_events/Cb/Test_Cb_Event_18.jpg,u,response,c,NA,FALSE,Cb
NA,NA,NA,NA,NA,image-keyboard-response,88,281286,0.0-7.0-0.0-0.10,75,Study 75,Session 75,NA,3261,img/testing_events/Cb/Test_Cb_Event_23.jpg,n,response,n,NA,TRUE,Cb
NA,NA,NA,NA,NA,image-keyboard-response,89,283997,0.0-7.0-0.0-0.11,75,Study 75,Session 75,NA,2710,img/testing_events/Cb/Test_Cb_Event_5.jpg,u,response,u,NA,TRUE,Cb
NA,NA,NA,NA,NA,image-keyboard-response,90,295319,0.0-7.0-0.0-0.12,75,Study 75,Session 75,NA,11321,img/testing_events/Cb/Test_Cb_Event_11.jpg,e,response,n,NA,FALSE,Cb
NA,NA,NA,NA,NA,image-keyboard-response,91,299657,0.0-7.0-0.0-0.13,75,Study 75,Session 75,NA,4337,img/testing_events/Cb/Test_Cb_Event_14.jpg,u,response,c,NA,FALSE,Cb
NA,NA,NA,NA,NA,image-keyboard-response,92,306528,0.0-7.0-0.0-0.14,75,Study 75,Session 75,NA,6870,img/testing_events/Cb/Test_Cb_Event_12.jpg,u,response,e,NA,FALSE,Cb
NA,NA,NA,NA,NA,image-keyboard-response,93,313037,0.0-7.0-0.0-0.15,75,Study 75,Session 75,NA,6508,img/testing_events/Cb/Test_Cb_Event_10.jpg,n,response,c,NA,FALSE,Cb
NA,NA,NA,NA,NA,image-keyboard-response,94,318062,0.0-7.0-0.0-0.16,75,Study 75,Session 75,NA,5025,img/testing_events/Cb/Test_Cb_Event_20.jpg,e,response,e,NA,TRUE,Cb
NA,NA,NA,NA,NA,image-keyboard-response,95,320542,0.0-7.0-0.0-0.17,75,Study 75,Session 75,NA,2478,img/testing_events/Cb/Test_Cb_Event_2.jpg,c,response,c,NA,TRUE,Cb
NA,NA,NA,NA,NA,image-keyboard-response,96,323670,0.0-7.0-0.0-0.18,75,Study 75,Session 75,NA,3126,img/testing_events/Cb/Test_Cb_Event_19.jpg,n,response,n,NA,TRUE,Cb
NA,NA,NA,NA,NA,image-keyboard-response,97,327260,0.0-7.0-0.0-0.19,75,Study 75,Session 75,NA,3589,img/testing_events/Cb/Test_Cb_Event_17.jpg,u,response,u,NA,TRUE,Cb
NA,NA,NA,NA,NA,image-keyboard-response,98,330729,0.0-7.0-0.0-0.20,75,Study 75,Session 75,NA,3468,img/testing_events/Cb/Test_Cb_Event_1.jpg,e,response,u,NA,FALSE,Cb
NA,NA,NA,NA,NA,image-keyboard-response,99,332333,0.0-7.0-0.0-0.21,75,Study 75,Session 75,NA,1602,img/testing_events/Cb/Test_Cb_Event_3.jpg,n,response,n,NA,TRUE,Cb
NA,NA,NA,NA,NA,image-keyboard-response,100,336135,0.0-7.0-0.0-0.22,75,Study 75,Session 75,NA,3801,img/testing_events/Cb/Test_Cb_Event_24.jpg,u,response,e,NA,FALSE,Cb
NA,NA,NA,NA,NA,image-keyboard-response,101,337767,0.0-7.0-0.0-0.23,75,Study 75,Session 75,NA,1631,img/testing_events/Cb/Test_Cb_Event_22.jpg,e,response,c,NA,FALSE,Cb
NA,NA,NA,NA,NA,image-keyboard-response,102,340566,0.0-7.0-1.0-0.0,75,Study 75,Session 75,NA,2798,img/testing_events/Ba/Test_Ba_Event_23.jpg,e,response,e,NA,TRUE,Ba
NA,NA,NA,NA,NA,image-keyboard-response,103,344174,0.0-7.0-1.0-0.1,75,Study 75,Session 75,NA,3607,img/testing_events/Ba/Test_Ba_Event_24.jpg,u,response,u,NA,TRUE,Ba
NA,NA,NA,NA,NA,image-keyboard-response,104,346971,0.0-7.0-1.0-0.2,75,Study 75,Session 75,NA,2795,img/testing_events/Ba/Test_Ba_Event_11.jpg,u,response,e,NA,FALSE,Ba
NA,NA,NA,NA,NA,image-keyboard-response,105,349645,0.0-7.0-1.0-0.3,75,Study 75,Session 75,NA,2673,img/testing_events/Ba/Test_Ba_Event_14.jpg,n,response,n,NA,TRUE,Ba
NA,NA,NA,NA,NA,image-keyboard-response,106,355575,0.0-7.0-1.0-0.4,75,Study 75,Session 75,NA,5929,img/testing_events/Ba/Test_Ba_Event_7.jpg,e,response,e,NA,TRUE,Ba
NA,NA,NA,NA,NA,image-keyboard-response,107,357870,0.0-7.0-1.0-0.5,75,Study 75,Session 75,NA,2291,img/testing_events/Ba/Test_Ba_Event_5.jpg,c,response,c,NA,TRUE,Ba
NA,NA,NA,NA,NA,image-keyboard-response,108,361120,0.0-7.0-1.0-0.6,75,Study 75,Session 75,NA,3249,img/testing_events/Ba/Test_Ba_Event_13.jpg,c,response,c,NA,TRUE,Ba
NA,NA,NA,NA,NA,image-keyboard-response,109,362811,0.0-7.0-1.0-0.7,75,Study 75,Session 75,NA,1689,img/testing_events/Ba/Test_Ba_Event_15.jpg,e,response,e,NA,TRUE,Ba
NA,NA,NA,NA,NA,image-keyboard-response,110,369528,0.0-7.0-1.0-0.8,75,Study 75,Session 75,NA,6716,img/testing_events/Ba/Test_Ba_Event_12.jpg,u,response,u,NA,TRUE,Ba
NA,NA,NA,NA,NA,image-keyboard-response,111,373940,0.0-7.0-1.0-0.9,75,Study 75,Session 75,NA,4411,img/testing_events/Ba/Test_Ba_Event_6.jpg,u,response,n,NA,FALSE,Ba
NA,NA,NA,NA,NA,image-keyboard-response,112,380846,0.0-7.0-1.0-0.10,75,Study 75,Session 75,NA,6897,img/testing_events/Ba/Test_Ba_Event_1.jpg,c,response,c,NA,TRUE,Ba
NA,NA,NA,NA,NA,image-keyboard-response,113,382029,0.0-7.0-1.0-0.11,75,Study 75,Session 75,NA,1181,img/testing_events/Ba/Test_Ba_Event_19.jpg,e,response,e,NA,TRUE,Ba
NA,NA,NA,NA,NA,image-keyboard-response,114,384518,0.0-7.0-1.0-0.12,75,Study 75,Session 75,NA,2488,img/testing_events/Ba/Test_Ba_Event_22.jpg,n,response,n,NA,TRUE,Ba
NA,NA,NA,NA,NA,image-keyboard-response,115,387694,0.0-7.0-1.0-0.13,75,Study 75,Session 75,NA,3174,img/testing_events/Ba/Test_Ba_Event_9.jpg,c,response,c,NA,TRUE,Ba
NA,NA,NA,NA,NA,image-keyboard-response,116,395365,0.0-7.0-1.0-0.14,75,Study 75,Session 75,NA,7670,img/testing_events/Ba/Test_Ba_Event_8.jpg,u,response,u,NA,TRUE,Ba
NA,NA,NA,NA,NA,image-keyboard-response,117,400583,0.0-7.0-1.0-0.15,75,Study 75,Session 75,NA,5217,img/testing_events/Ba/Test_Ba_Event_18.jpg,c,response,n,NA,FALSE,Ba
NA,NA,NA,NA,NA,image-keyboard-response,118,404697,0.0-7.0-1.0-0.16,75,Study 75,Session 75,NA,4112,img/testing_events/Ba/Test_Ba_Event_21.jpg,c,response,c,NA,TRUE,Ba
NA,NA,NA,NA,NA,image-keyboard-response,119,406007,0.0-7.0-1.0-0.17,75,Study 75,Session 75,NA,1309,img/testing_events/Ba/Test_Ba_Event_3.jpg,e,response,e,NA,TRUE,Ba
NA,NA,NA,NA,NA,image-keyboard-response,120,407247,0.0-7.0-1.0-0.18,75,Study 75,Session 75,NA,1239,img/testing_events/Ba/Test_Ba_Event_17.jpg,c,response,c,NA,TRUE,Ba
NA,NA,NA,NA,NA,image-keyboard-response,121,414716,0.0-7.0-1.0-0.19,75,Study 75,Session 75,NA,7467,img/testing_events/Ba/Test_Ba_Event_16.jpg,u,response,u,NA,TRUE,Ba
NA,NA,NA,NA,NA,image-keyboard-response,122,418089,0.0-7.0-1.0-0.20,75,Study 75,Session 75,NA,3372,img/testing_events/Ba/Test_Ba_Event_20.jpg,u,response,u,NA,TRUE,Ba
NA,NA,NA,NA,NA,image-keyboard-response,123,421710,0.0-7.0-1.0-0.21,75,Study 75,Session 75,NA,3620,img/testing_events/Ba/Test_Ba_Event_10.jpg,n,response,n,NA,TRUE,Ba
NA,NA,NA,NA,NA,image-keyboard-response,124,424317,0.0-7.0-1.0-0.22,75,Study 75,Session 75,NA,2605,img/testing_events/Ba/Test_Ba_Event_4.jpg,u,response,u,NA,TRUE,Ba
NA,NA,NA,NA,NA,image-keyboard-response,125,426414,0.0-7.0-1.0-0.23,75,Study 75,Session 75,NA,2096,img/testing_events/Ba/Test_Ba_Event_2.jpg,n,response,n,NA,TRUE,Ba
NA,NA,NA,NA,NA,image-keyboard-response,126,428890,0.0-7.0-2.0-0.0,75,Study 75,Session 75,NA,2474,img/testing_events/Bc/Test_Bc_Event_21.jpg,n,response,n,NA,TRUE,Bc
NA,NA,NA,NA,NA,image-keyboard-response,127,431307,0.0-7.0-2.0-0.1,75,Study 75,Session 75,NA,2416,img/testing_events/Bc/Test_Bc_Event_9.jpg,n,response,n,NA,TRUE,Bc
NA,NA,NA,NA,NA,image-keyboard-response,128,433866,0.0-7.0-2.0-0.2,75,Study 75,Session 75,NA,2557,img/testing_events/Bc/Test_Bc_Event_16.jpg,e,response,c,NA,FALSE,Bc
NA,NA,NA,NA,NA,image-keyboard-response,129,437465,0.0-7.0-2.0-0.3,75,Study 75,Session 75,NA,3598,img/testing_events/Bc/Test_Bc_Event_10.jpg,e,response,e,NA,TRUE,Bc
NA,NA,NA,NA,NA,image-keyboard-response,130,439749,0.0-7.0-2.0-0.4,75,Study 75,Session 75,NA,2282,img/testing_events/Bc/Test_Bc_Event_17.jpg,n,response,n,NA,TRUE,Bc
NA,NA,NA,NA,NA,image-keyboard-response,131,441152,0.0-7.0-2.0-0.5,75,Study 75,Session 75,NA,1399,img/testing_events/Bc/Test_Bc_Event_22.jpg,c,response,e,NA,FALSE,Bc
NA,NA,NA,NA,NA,image-keyboard-response,132,443868,0.0-7.0-2.0-0.6,75,Study 75,Session 75,NA,2715,img/testing_events/Bc/Test_Bc_Event_11.jpg,c,response,u,NA,FALSE,Bc
NA,NA,NA,NA,NA,image-keyboard-response,133,444982,0.0-7.0-2.0-0.7,75,Study 75,Session 75,NA,1112,img/testing_events/Bc/Test_Bc_Event_3.jpg,u,response,u,NA,TRUE,Bc
NA,NA,NA,NA,NA,image-keyboard-response,134,446034,0.0-7.0-2.0-0.8,75,Study 75,Session 75,NA,1052,img/testing_events/Bc/Test_Bc_Event_14.jpg,c,response,e,NA,FALSE,Bc
NA,NA,NA,NA,NA,image-keyboard-response,135,447982,0.0-7.0-2.0-0.9,75,Study 75,Session 75,NA,1945,img/testing_events/Bc/Test_Bc_Event_19.jpg,u,response,u,NA,TRUE,Bc
NA,NA,NA,NA,NA,image-keyboard-response,136,450269,0.0-7.0-2.0-0.10,75,Study 75,Session 75,NA,2286,img/testing_events/Bc/Test_Bc_Event_8.jpg,c,response,c,NA,TRUE,Bc
NA,NA,NA,NA,NA,image-keyboard-response,137,452129,0.0-7.0-2.0-0.11,75,Study 75,Session 75,NA,1859,img/testing_events/Bc/Test_Bc_Event_24.jpg,u,response,c,NA,FALSE,Bc
NA,NA,NA,NA,NA,image-keyboard-response,138,454132,0.0-7.0-2.0-0.12,75,Study 75,Session 75,NA,2002,img/testing_events/Bc/Test_Bc_Event_7.jpg,u,response,u,NA,TRUE,Bc
NA,NA,NA,NA,NA,image-keyboard-response,139,456490,0.0-7.0-2.0-0.13,75,Study 75,Session 75,NA,2357,img/testing_events/Bc/Test_Bc_Event_23.jpg,u,response,u,NA,TRUE,Bc
NA,NA,NA,NA,NA,image-keyboard-response,140,461501,0.0-7.0-2.0-0.14,75,Study 75,Session 75,NA,5010,img/testing_events/Bc/Test_Bc_Event_1.jpg,n,response,n,NA,TRUE,Bc
NA,NA,NA,NA,NA,image-keyboard-response,141,464231,0.0-7.0-2.0-0.15,75,Study 75,Session 75,NA,2728,img/testing_events/Bc/Test_Bc_Event_4.jpg,c,response,c,NA,TRUE,Bc
NA,NA,NA,NA,NA,image-keyboard-response,142,471017,0.0-7.0-2.0-0.16,75,Study 75,Session 75,NA,6785,img/testing_events/Bc/Test_Bc_Event_5.jpg,u,response,n,NA,FALSE,Bc
NA,NA,NA,NA,NA,image-keyboard-response,143,472902,0.0-7.0-2.0-0.17,75,Study 75,Session 75,NA,1885,img/testing_events/Bc/Test_Bc_Event_15.jpg,u,response,u,NA,TRUE,Bc
NA,NA,NA,NA,NA,image-keyboard-response,144,475500,0.0-7.0-2.0-0.18,75,Study 75,Session 75,NA,2596,img/testing_events/Bc/Test_Bc_Event_18.jpg,e,response,e,NA,TRUE,Bc
NA,NA,NA,NA,NA,image-keyboard-response,145,477630,0.0-7.0-2.0-0.19,75,Study 75,Session 75,NA,2129,img/testing_events/Bc/Test_Bc_Event_6.jpg,e,response,e,NA,TRUE,Bc
NA,NA,NA,NA,NA,image-keyboard-response,146,479743,0.0-7.0-2.0-0.20,75,Study 75,Session 75,NA,2112,img/testing_events/Bc/Test_Bc_Event_13.jpg,e,response,n,NA,FALSE,Bc
NA,NA,NA,NA,NA,image-keyboard-response,147,481640,0.0-7.0-2.0-0.21,75,Study 75,Session 75,NA,1895,img/testing_events/Bc/Test_Bc_Event_20.jpg,c,response,c,NA,TRUE,Bc
NA,NA,NA,NA,NA,image-keyboard-response,148,484054,0.0-7.0-2.0-0.22,75,Study 75,Session 75,NA,2412,img/testing_events/Bc/Test_Bc_Event_12.jpg,c,response,c,NA,TRUE,Bc
NA,NA,NA,NA,NA,image-keyboard-response,149,486006,0.0-7.0-2.0-0.23,75,Study 75,Session 75,NA,1951,img/testing_events/Bc/Test_Bc_Event_2.jpg,n,response,e,NA,FALSE,Bc
NA,NA,NA,NA,NA,image-keyboard-response,150,491082,0.0-7.0-3.0-0.0,75,Study 75,Session 75,NA,5074,img/testing_events/Ab/Test_Ab_Event_20.jpg,n,response,n,NA,TRUE,Ab
NA,NA,NA,NA,NA,image-keyboard-response,151,492746,0.0-7.0-3.0-0.1,75,Study 75,Session 75,NA,1663,img/testing_events/Ab/Test_Ab_Event_13.jpg,e,response,e,NA,TRUE,Ab
NA,NA,NA,NA,NA,image-keyboard-response,152,495936,0.0-7.0-3.0-0.2,75,Study 75,Session 75,NA,3189,img/testing_events/Ab/Test_Ab_Event_11.jpg,c,response,c,NA,TRUE,Ab
NA,NA,NA,NA,NA,image-keyboard-response,153,498625,0.0-7.0-3.0-0.3,75,Study 75,Session 75,NA,2687,img/testing_events/Ab/Test_Ab_Event_16.jpg,u,response,n,NA,FALSE,Ab
NA,NA,NA,NA,NA,image-keyboard-response,154,499824,0.0-7.0-3.0-0.4,75,Study 75,Session 75,NA,1198,img/testing_events/Ab/Test_Ab_Event_19.jpg,c,response,c,NA,TRUE,Ab
NA,NA,NA,NA,NA,image-keyboard-response,155,501417,0.0-7.0-3.0-0.5,75,Study 75,Session 75,NA,1601,img/testing_events/Ab/Test_Ab_Event_1.jpg,e,response,e,NA,TRUE,Ab
NA,NA,NA,NA,NA,image-keyboard-response,156,502872,0.0-7.0-3.0-0.6,75,Study 75,Session 75,NA,1454,img/testing_events/Ab/Test_Ab_Event_4.jpg,n,response,n,NA,TRUE,Ab
NA,NA,NA,NA,NA,image-keyboard-response,157,504139,0.0-7.0-3.0-0.7,75,Study 75,Session 75,NA,1264,img/testing_events/Ab/Test_Ab_Event_8.jpg,n,response,n,NA,TRUE,Ab
NA,NA,NA,NA,NA,image-keyboard-response,158,505712,0.0-7.0-3.0-0.8,75,Study 75,Session 75,NA,1572,img/testing_events/Ab/Test_Ab_Event_5.jpg,e,response,e,NA,TRUE,Ab
NA,NA,NA,NA,NA,image-keyboard-response,159,507131,0.0-7.0-3.0-0.9,75,Study 75,Session 75,NA,1417,img/testing_events/Ab/Test_Ab_Event_17.jpg,e,response,e,NA,TRUE,Ab
NA,NA,NA,NA,NA,image-keyboard-response,160,510343,0.0-7.0-3.0-0.10,75,Study 75,Session 75,NA,3211,img/testing_events/Ab/Test_Ab_Event_9.jpg,n,response,e,NA,FALSE,Ab
NA,NA,NA,NA,NA,image-keyboard-response,161,511795,0.0-7.0-3.0-0.11,75,Study 75,Session 75,NA,1451,img/testing_events/Ab/Test_Ab_Event_3.jpg,c,response,c,NA,TRUE,Ab
NA,NA,NA,NA,NA,image-keyboard-response,162,514088,0.0-7.0-3.0-0.12,75,Study 75,Session 75,NA,2292,img/testing_events/Ab/Test_Ab_Event_22.jpg,u,response,u,NA,TRUE,Ab
NA,NA,NA,NA,NA,image-keyboard-response,163,515122,0.0-7.0-3.0-0.13,75,Study 75,Session 75,NA,1032,img/testing_events/Ab/Test_Ab_Event_15.jpg,c,response,c,NA,TRUE,Ab
NA,NA,NA,NA,NA,image-keyboard-response,164,522871,0.0-7.0-3.0-0.14,75,Study 75,Session 75,NA,7749,img/testing_events/Ab/Test_Ab_Event_12.jpg,e,response,n,NA,FALSE,Ab
NA,NA,NA,NA,NA,image-keyboard-response,165,524921,0.0-7.0-3.0-0.15,75,Study 75,Session 75,NA,2048,img/testing_events/Ab/Test_Ab_Event_24.jpg,n,response,n,NA,TRUE,Ab
NA,NA,NA,NA,NA,image-keyboard-response,166,528497,0.0-7.0-3.0-0.16,75,Study 75,Session 75,NA,3574,img/testing_events/Ab/Test_Ab_Event_10.jpg,u,response,u,NA,TRUE,Ab
NA,NA,NA,NA,NA,image-keyboard-response,167,533416,0.0-7.0-3.0-0.17,75,Study 75,Session 75,NA,4917,img/testing_events/Ab/Test_Ab_Event_6.jpg,e,response,u,NA,FALSE,Ab
NA,NA,NA,NA,NA,image-keyboard-response,168,538425,0.0-7.0-3.0-0.18,75,Study 75,Session 75,NA,5008,img/testing_events/Ab/Test_Ab_Event_18.jpg,u,response,u,NA,TRUE,Ab
NA,NA,NA,NA,NA,image-keyboard-response,169,540098,0.0-7.0-3.0-0.19,75,Study 75,Session 75,NA,1672,img/testing_events/Ab/Test_Ab_Event_21.jpg,e,response,e,NA,TRUE,Ab
NA,NA,NA,NA,NA,image-keyboard-response,170,544134,0.0-7.0-3.0-0.20,75,Study 75,Session 75,NA,4034,img/testing_events/Ab/Test_Ab_Event_7.jpg,c,response,c,NA,TRUE,Ab
NA,NA,NA,NA,NA,image-keyboard-response,171,545995,0.0-7.0-3.0-0.21,75,Study 75,Session 75,NA,1860,img/testing_events/Ab/Test_Ab_Event_2.jpg,u,response,u,NA,TRUE,Ab
NA,NA,NA,NA,NA,image-keyboard-response,172,547298,0.0-7.0-3.0-0.22,75,Study 75,Session 75,NA,1301,img/testing_events/Ab/Test_Ab_Event_14.jpg,u,response,u,NA,TRUE,Ab
NA,NA,NA,NA,NA,image-keyboard-response,173,548894,0.0-7.0-3.0-0.23,75,Study 75,Session 75,NA,1594,img/testing_events/Ab/Test_Ab_Event_23.jpg,c,response,c,NA,TRUE,Ab
NA,NA,NA,NA,NA,image-keyboard-response,174,551150,0.0-7.0-4.0-0.0,75,Study 75,Session 75,NA,2255,img/testing_events/Ca/Test_Ca_Event_20.jpg,n,response,n,NA,TRUE,Ca
NA,NA,NA,NA,NA,image-keyboard-response,175,553075,0.0-7.0-4.0-0.1,75,Study 75,Session 75,NA,1923,img/testing_events/Ca/Test_Ca_Event_15.jpg,c,response,c,NA,TRUE,Ca
NA,NA,NA,NA,NA,image-keyboard-response,176,554508,0.0-7.0-4.0-0.2,75,Study 75,Session 75,NA,1432,img/testing_events/Ca/Test_Ca_Event_3.jpg,c,response,c,NA,TRUE,Ca
NA,NA,NA,NA,NA,image-keyboard-response,177,560595,0.0-7.0-4.0-0.3,75,Study 75,Session 75,NA,6085,img/testing_events/Ca/Test_Ca_Event_11.jpg,e,response,c,NA,FALSE,Ca
NA,NA,NA,NA,NA,image-keyboard-response,178,562835,0.0-7.0-4.0-0.4,75,Study 75,Session 75,NA,2231,img/testing_events/Ca/Test_Ca_Event_7.jpg,c,response,c,NA,TRUE,Ca
NA,NA,NA,NA,NA,image-keyboard-response,179,564651,0.0-7.0-4.0-0.5,75,Study 75,Session 75,NA,1815,img/testing_events/Ca/Test_Ca_Event_4.jpg,n,response,n,NA,TRUE,Ca
NA,NA,NA,NA,NA,image-keyboard-response,180,566895,0.0-7.0-4.0-0.6,75,Study 75,Session 75,NA,2243,img/testing_events/Ca/Test_Ca_Event_5.jpg,e,response,e,NA,TRUE,Ca
NA,NA,NA,NA,NA,image-keyboard-response,181,568617,0.0-7.0-4.0-0.7,75,Study 75,Session 75,NA,1721,img/testing_events/Ca/Test_Ca_Event_23.jpg,u,response,c,NA,FALSE,Ca
NA,NA,NA,NA,NA,image-keyboard-response,182,571318,0.0-7.0-4.0-0.8,75,Study 75,Session 75,NA,2699,img/testing_events/Ca/Test_Ca_Event_12.jpg,n,response,n,NA,TRUE,Ca
NA,NA,NA,NA,NA,image-keyboard-response,183,572686,0.0-7.0-4.0-0.9,75,Study 75,Session 75,NA,1367,img/testing_events/Ca/Test_Ca_Event_16.jpg,e,response,n,NA,FALSE,Ca
NA,NA,NA,NA,NA,image-keyboard-response,184,574493,0.0-7.0-4.0-0.10,75,Study 75,Session 75,NA,1805,img/testing_events/Ca/Test_Ca_Event_10.jpg,u,response,u,NA,TRUE,Ca
NA,NA,NA,NA,NA,image-keyboard-response,185,576371,0.0-7.0-4.0-0.11,75,Study 75,Session 75,NA,1876,img/testing_events/Ca/Test_Ca_Event_21.jpg,e,response,e,NA,TRUE,Ca
NA,NA,NA,NA,NA,image-keyboard-response,186,579392,0.0-7.0-4.0-0.12,75,Study 75,Session 75,NA,3020,img/testing_events/Ca/Test_Ca_Event_6.jpg,u,response,u,NA,TRUE,Ca
NA,NA,NA,NA,NA,image-keyboard-response,187,581298,0.0-7.0-4.0-0.13,75,Study 75,Session 75,NA,1903,img/testing_events/Ca/Test_Ca_Event_22.jpg,u,response,u,NA,TRUE,Ca
NA,NA,NA,NA,NA,image-keyboard-response,188,583322,0.0-7.0-4.0-0.14,75,Study 75,Session 75,NA,2023,img/testing_events/Ca/Test_Ca_Event_24.jpg,u,response,n,NA,FALSE,Ca
NA,NA,NA,NA,NA,image-keyboard-response,189,586235,0.0-7.0-4.0-0.15,75,Study 75,Session 75,NA,2912,img/testing_events/Ca/Test_Ca_Event_18.jpg,u,response,u,NA,TRUE,Ca
NA,NA,NA,NA,NA,image-keyboard-response,190,589129,0.0-7.0-4.0-0.16,75,Study 75,Session 75,NA,2893,img/testing_events/Ca/Test_Ca_Event_8.jpg,n,response,n,NA,TRUE,Ca
NA,NA,NA,NA,NA,image-keyboard-response,191,590142,0.0-7.0-4.0-0.17,75,Study 75,Session 75,NA,1013,img/testing_events/Ca/Test_Ca_Event_17.jpg,e,response,e,NA,TRUE,Ca
NA,NA,NA,NA,NA,image-keyboard-response,192,591850,0.0-7.0-4.0-0.18,75,Study 75,Session 75,NA,1707,img/testing_events/Ca/Test_Ca_Event_13.jpg,n,response,e,NA,FALSE,Ca
NA,NA,NA,NA,NA,image-keyboard-response,193,593250,0.0-7.0-4.0-0.19,75,Study 75,Session 75,NA,1399,img/testing_events/Ca/Test_Ca_Event_1.jpg,e,response,e,NA,TRUE,Ca
NA,NA,NA,NA,NA,image-keyboard-response,194,596828,0.0-7.0-4.0-0.20,75,Study 75,Session 75,NA,3576,img/testing_events/Ca/Test_Ca_Event_9.jpg,n,response,e,NA,FALSE,Ca
NA,NA,NA,NA,NA,image-keyboard-response,195,598877,0.0-7.0-4.0-0.21,75,Study 75,Session 75,NA,2048,img/testing_events/Ca/Test_Ca_Event_19.jpg,c,response,c,NA,TRUE,Ca
NA,NA,NA,NA,NA,image-keyboard-response,196,600390,0.0-7.0-4.0-0.22,75,Study 75,Session 75,NA,1512,img/testing_events/Ca/Test_Ca_Event_14.jpg,n,response,u,NA,FALSE,Ca
NA,NA,NA,NA,NA,image-keyboard-response,197,604391,0.0-7.0-4.0-0.23,75,Study 75,Session 75,NA,4000,img/testing_events/Ca/Test_Ca_Event_2.jpg,u,response,u,NA,TRUE,Ca
NA,NA,NA,NA,NA,image-keyboard-response,198,606194,0.0-7.0-5.0-0.0,75,Study 75,Session 75,NA,1801,img/testing_events/Ac/Test_Ac_Event_2.jpg,c,response,c,NA,TRUE,Ac
NA,NA,NA,NA,NA,image-keyboard-response,199,607516,0.0-7.0-5.0-0.1,75,Study 75,Session 75,NA,1321,img/testing_events/Ac/Test_Ac_Event_24.jpg,n,response,e,NA,FALSE,Ac
NA,NA,NA,NA,NA,image-keyboard-response,200,608815,0.0-7.0-5.0-0.2,75,Study 75,Session 75,NA,1298,img/testing_events/Ac/Test_Ac_Event_15.jpg,n,response,n,NA,TRUE,Ac
NA,NA,NA,NA,NA,image-keyboard-response,201,610280,0.0-7.0-5.0-0.3,75,Study 75,Session 75,NA,1463,img/testing_events/Ac/Test_Ac_Event_7.jpg,n,response,n,NA,TRUE,Ac
NA,NA,NA,NA,NA,image-keyboard-response,202,611776,0.0-7.0-5.0-0.4,75,Study 75,Session 75,NA,1494,img/testing_events/Ac/Test_Ac_Event_13.jpg,u,response,u,NA,TRUE,Ac
NA,NA,NA,NA,NA,image-keyboard-response,203,613420,0.0-7.0-5.0-0.5,75,Study 75,Session 75,NA,1643,img/testing_events/Ac/Test_Ac_Event_18.jpg,u,response,c,NA,FALSE,Ac
NA,NA,NA,NA,NA,image-keyboard-response,204,615643,0.0-7.0-5.0-0.6,75,Study 75,Session 75,NA,2222,img/testing_events/Ac/Test_Ac_Event_11.jpg,c,response,n,NA,FALSE,Ac
NA,NA,NA,NA,NA,image-keyboard-response,205,618743,0.0-7.0-5.0-0.7,75,Study 75,Session 75,NA,3099,img/testing_events/Ac/Test_Ac_Event_12.jpg,e,response,e,NA,TRUE,Ac
NA,NA,NA,NA,NA,image-keyboard-response,206,619860,0.0-7.0-5.0-0.8,75,Study 75,Session 75,NA,1115,img/testing_events/Ac/Test_Ac_Event_17.jpg,u,response,u,NA,TRUE,Ac
NA,NA,NA,NA,NA,image-keyboard-response,207,622408,0.0-7.0-5.0-0.9,75,Study 75,Session 75,NA,2547,img/testing_events/Ac/Test_Ac_Event_6.jpg,c,response,c,NA,TRUE,Ac
NA,NA,NA,NA,NA,image-keyboard-response,208,624105,0.0-7.0-5.0-0.10,75,Study 75,Session 75,NA,1697,img/testing_events/Ac/Test_Ac_Event_8.jpg,e,response,e,NA,TRUE,Ac
NA,NA,NA,NA,NA,image-keyboard-response,209,626928,0.0-7.0-5.0-0.11,75,Study 75,Session 75,NA,2822,img/testing_events/Ac/Test_Ac_Event_9.jpg,u,response,u,NA,TRUE,Ac
NA,NA,NA,NA,NA,image-keyboard-response,210,628799,0.0-7.0-5.0-0.12,75,Study 75,Session 75,NA,1870,img/testing_events/Ac/Test_Ac_Event_14.jpg,n,response,c,NA,FALSE,Ac
NA,NA,NA,NA,NA,image-keyboard-response,211,632861,0.0-7.0-5.0-0.13,75,Study 75,Session 75,NA,4061,img/testing_events/Ac/Test_Ac_Event_1.jpg,u,response,u,NA,TRUE,Ac
NA,NA,NA,NA,NA,image-keyboard-response,212,634200,0.0-7.0-5.0-0.14,75,Study 75,Session 75,NA,1337,img/testing_events/Ac/Test_Ac_Event_4.jpg,e,response,e,NA,TRUE,Ac
NA,NA,NA,NA,NA,image-keyboard-response,213,638508,0.0-7.0-5.0-0.15,75,Study 75,Session 75,NA,4307,img/testing_events/Ac/Test_Ac_Event_5.jpg,u,response,u,NA,TRUE,Ac
NA,NA,NA,NA,NA,image-keyboard-response,214,640545,0.0-7.0-5.0-0.16,75,Study 75,Session 75,NA,2036,img/testing_events/Ac/Test_Ac_Event_21.jpg,u,response,u,NA,TRUE,Ac
NA,NA,NA,NA,NA,image-keyboard-response,215,641867,0.0-7.0-5.0-0.17,75,Study 75,Session 75,NA,1321,img/testing_events/Ac/Test_Ac_Event_10.jpg,c,response,c,NA,TRUE,Ac
NA,NA,NA,NA,NA,image-keyboard-response,216,643120,0.0-7.0-5.0-0.18,75,Study 75,Session 75,NA,1251,img/testing_events/Ac/Test_Ac_Event_19.jpg,u,response,n,NA,FALSE,Ac
NA,NA,NA,NA,NA,image-keyboard-response,217,645745,0.0-7.0-5.0-0.19,75,Study 75,Session 75,NA,2624,img/testing_events/Ac/Test_Ac_Event_22.jpg,n,response,c,NA,FALSE,Ac
NA,NA,NA,NA,NA,image-keyboard-response,218,648163,0.0-7.0-5.0-0.20,75,Study 75,Session 75,NA,2417,img/testing_events/Ac/Test_Ac_Event_16.jpg,n,response,e,NA,FALSE,Ac
NA,NA,NA,NA,NA,image-keyboard-response,219,649789,0.0-7.0-5.0-0.21,75,Study 75,Session 75,NA,1625,img/testing_events/Ac/Test_Ac_Event_3.jpg,n,response,n,NA,TRUE,Ac
NA,NA,NA,NA,NA,image-keyboard-response,220,651294,0.0-7.0-5.0-0.22,75,Study 75,Session 75,NA,1504,img/testing_events/Ac/Test_Ac_Event_23.jpg,u,response,n,NA,FALSE,Ac
NA,NA,NA,NA,NA,image-keyboard-response,221,653817,0.0-7.0-5.0-0.23,75,Study 75,Session 75,NA,2522,img/testing_events/Ac/Test_Ac_Event_20.jpg,e,response,e,NA,TRUE,Ac
NA,NA,NA,NA,NA,survey-text,222,671777,0.0-8.0,75,Study 75,Session 75,NA,17950,NA,"{""Q0"":""no :("",""Q1"":""nope"",""Q2"":""this was hard lol""}",NA,NA,NA,NA,NA
NA,NA,NA,NA,NA,survey-html-form,223,697341,0.0-9.0,75,Study 75,Session 75,NA,25559,NA,"{""Gender"":""Female"",""Age"":""28"",""ColorBlind"":""No"",""Education"":""Bachelors degree"",""Income"":""$150,000+"",""Race"":""American Indian/Alaskan Native"",""Fluent"":""Yes"",""AgeEnglish"":""0"",""Country"":""USA""}",NA,NA,NA,NA,NA
TRUE,NA,NA,NA,NA,fullscreen,224,697343,0.0-10.0,75,Study 75,Session 75,NA,NA,NA,NA,NA,NA,NA,NA,NA
