success,timeout,failed_images,failed_audio,failed_video,trial_type,trial_index,time_elapsed,internal_node_id,subject_id,study_id,session_id,view_history,rt,stimulus,response,task,correct_response,attention_duration,correct,retrieval_group
TRUE,FALSE,[],[],[],preload,0,1011,0.0-0.0,8,Study 8,Session 8,NA,NA,NA,NA,NA,NA,NA,NA,NA
TRUE,NA,NA,NA,NA,fullscreen,1,104385,0.0-1.0,8,Study 8,Session 8,NA,NA,NA,NA,NA,NA,NA,NA,NA
NA,NA,NA,NA,NA,instructions,2,107426,0.0-2.0,8,Study 8,Session 8,"[{""page_index"":0,""viewing_time"":3039}]",3039,NA,NA,NA,NA,NA,NA,NA
NA,NA,NA,NA,NA,html-keyboard-response,3,114167,0.0-3.0,8,Study 8,Session 8,NA,6740,"Welcome to the experiment. <br /><br />This experiment will take about 20 minutes. Please complete all in one sitting. <br /><br />For this study, <strong>please use</strong> a laptop or desktop computer (not a mobile phone or tablet). Also, please use either <u>Chrome or Firefox</u>. <br /><br />Once you begin, <strong>DO NOT</strong> refresh the browser, as the experiment will reset and you will lose your progress. <br /><br />Press the <strong class=""upperline"">B</strong> key on your keyboard to begin.",b,NA,NA,NA,NA,NA
NA,NA,NA,NA,NA,instructions,4,123885,0.0-4.0,8,Study 8,Session 8,"[{""page_index"":0,""viewing_time"":2181},{""page_index"":1,""viewing_time"":4774},{""page_index"":2,""viewing_time"":1757}]",8712,NA,NA,NA,NA,NA,NA,NA
NA,NA,NA,NA,NA,html-keyboard-response,5,126896,0.0-5.0-0.0,8,Study 8,Session 8,NA,null,"<div style=""font-size:60px;"">+</div>",null,fixation,NA,NA,NA,NA
NA,NA,NA,NA,NA,image-keyboard-response,6,132910,0.0-5.0-1.0,8,Study 8,Session 8,NA,null,img/encoding_events/Event_1.jpg,null,NA,NA,NA,NA,NA
NA,NA,NA,NA,NA,html-keyboard-response,7,132915,0.0-5.0-2.0,8,Study 8,Session 8,NA,null,Please press the <strong><u>k</u></strong> key to continue,null,response,k,0,FALSE,NA
NA,NA,NA,NA,NA,html-keyboard-response,8,133421,0.0-5.0-0.1,8,Study 8,Session 8,NA,null,"<div style=""font-size:60px;"">+</div>",null,fixation,NA,NA,NA,NA
NA,NA,NA,NA,NA,image-keyboard-response,9,139430,0.0-5.0-1.1,8,Study 8,Session 8,NA,null,img/encoding_events/Event_2.jpg,null,NA,NA,NA,NA,NA
NA,NA,NA,NA,NA,html-keyboard-response,10,139435,0.0-5.0-2.1,8,Study 8,Session 8,NA,null,Please press the <strong><u>f</u></strong> key to continue,null,response,f,0,FALSE,NA
NA,NA,NA,NA,NA,html-keyboard-response,11,139937,0.0-5.0-0.2,8,Study 8,Session 8,NA,null,"<div style=""font-size:60px;"">+</div>",null,fixation,NA,NA,NA,NA
NA,NA,NA,NA,NA,image-keyboard-response,12,145946,0.0-5.0-1.2,8,Study 8,Session 8,NA,null,img/encoding_events/Event_21.jpg,null,NA,NA,NA,NA,NA
NA,NA,NA,NA,NA,html-keyboard-response,13,145951,0.0-5.0-2.2,8,Study 8,Session 8,NA,null,Please press the <strong><u>s</u></strong> key to continue,null,response,s,0,FALSE,NA
NA,NA,NA,NA,NA,html-keyboard-response,14,146453,0.0-5.0-0.3,8,Study 8,Session 8,NA,null,"<div style=""font-size:60px;"">+</div>",null,fixation,NA,NA,NA,NA
NA,NA,NA,NA,NA,image-keyboard-response,15,152460,0.0-5.0-1.3,8,Study 8,Session 8,NA,null,img/encoding_events/Event_8.jpg,null,NA,NA,NA,NA,NA
NA,NA,NA,NA,NA,html-keyboard-response,16,153853,0.0-5.0-2.3,8,Study 8,Session 8,NA,1391,Please press the <strong><u>a</u></strong> key to continue,a,response,a,6000,TRUE,NA
NA,NA,NA,NA,NA,html-keyboard-response,17,154357,0.0-5.0-0.4,8,Study 8,Session 8,NA,null,"<div style=""font-size:60px;"">+</div>",null,fixation,NA,NA,NA,NA
NA,NA,NA,NA,NA,image-keyboard-response,18,160366,0.0-5.0-1.4,8,Study 8,Session 8,NA,null,img/encoding_events/Event_10.jpg,null,NA,NA,NA,NA,NA
NA,NA,NA,NA,NA,html-keyboard-response,19,160369,0.0-5.0-2.4,8,Study 8,Session 8,NA,null,Please press the <strong><u>a</u></strong> key to continue,null,response,a,0,FALSE,NA
NA,NA,NA,NA,NA,html-keyboard-response,20,160870,0.0-5.0-0.5,8,Study 8,Session 8,NA,null,"<div style=""font-size:60px;"">+</div>",null,fixation,NA,NA,NA,NA
NA,NA,NA,NA,NA,image-keyboard-response,21,166879,0.0-5.0-1.5,8,Study 8,Session 8,NA,null,img/encoding_events/Event_15.jpg,null,NA,NA,NA,NA,NA
NA,NA,NA,NA,NA,html-keyboard-response,22,166884,0.0-5.0-2.5,8,Study 8,Session 8,NA,null,Please press the <strong><u>j</u></strong> key to continue,null,response,j,0,FALSE,NA
NA,NA,NA,NA,NA,html-keyboard-response,23,167386,0.0-5.0-0.6,8,Study 8,Session 8,NA,null,"<div style=""font-size:60px;"">+</div>",null,fixation,NA,NA,NA,NA
NA,NA,NA,NA,NA,image-keyboard-response,24,173401,0.0-5.0-1.6,8,Study 8,Session 8,NA,null,img/encoding_events/Event_3.jpg,null,NA,NA,NA,NA,NA
NA,NA,NA,NA,NA,html-keyboard-response,25,173407,0.0-5.0-2.6,8,Study 8,Session 8,NA,null,Please press the <strong><u>k</u></strong> key to continue,null,response,k,0,FALSE,NA
NA,NA,NA,NA,NA,html-keyboard-response,26,173909,0.0-5.0-0.7,8,Study 8,Session 8,NA,null,"<div style=""font-size:60px;"">+</div>",null,fixation,NA,NA,NA,NA
NA,NA,NA,NA,NA,image-keyboard-response,27,179919,0.0-5.0-1.7,8,Study 8,Session 8,NA,null,img/encoding_events/Event_4.jpg,null,NA,NA,NA,NA,NA
NA,NA,NA,NA,NA,html-keyboard-response,28,181717,0.0-5.0-2.7,8,Study 8,Session 8,NA,1797,Please press the <strong><u>s</u></strong> key to continue,s,response,s,6000,TRUE,NA
NA,NA,NA,NA,NA,html-keyboard-response,29,182221,0.0-5.0-0.8,8,Study 8,Session 8,NA,null,"<div style=""font-size:60px;"">+</div>",null,fixation,NA,NA,NA,NA
NA,NA,NA,NA,NA,image-keyboard-response,30,188229,0.0-5.0-1.8,8,Study 8,Session 8,NA,null,img/encoding_events/Event_23.jpg,null,NA,NA,NA,NA,NA
NA,NA,NA,NA,NA,html-keyboard-response,31,188233,0.0-5.0-2.8,8,Study 8,Session 8,NA,null,Please press the <strong><u>k</u></strong> key to continue,null,response,k,0,FALSE,NA
NA,NA,NA,NA,NA,html-keyboard-response,32,188734,0.0-5.0-0.9,8,Study 8,Session 8,NA,null,"<div style=""font-size:60px;"">+</div>",null,fixation,NA,NA,NA,NA
NA,NA,NA,NA,NA,image-keyboard-response,33,194744,0.0-5.0-1.9,8,Study 8,Session 8,NA,null,img/encoding_events/Event_19.jpg,null,NA,NA,NA,NA,NA
NA,NA,NA,NA,NA,html-keyboard-response,34,194751,0.0-5.0-2.9,8,Study 8,Session 8,NA,null,Please press the <strong><u>j</u></strong> key to continue,null,response,j,0,FALSE,NA
NA,NA,NA,NA,NA,html-keyboard-response,35,195253,0.0-5.0-0.10,8,Study 8,Session 8,NA,null,"<div style=""font-size:60px;"">+</div>",null,fixation,NA,NA,NA,NA
NA,NA,NA,NA,NA,image-keyboard-response,36,201260,0.0-5.0-1.10,8,Study 8,Session 8,NA,null,img/encoding_events/Event_16.jpg,null,NA,NA,NA,NA,NA
NA,NA,NA,NA,NA,html-keyboard-response,37,201265,0.0-5.0-2.10,8,Study 8,Session 8,NA,null,Please press the <strong><u>d</u></strong> key to continue,null,response,d,0,FALSE,NA
NA,NA,NA,NA,NA,html-keyboard-response,38,201767,0.0-5.0-0.11,8,Study 8,Session 8,NA,null,"<div style=""font-size:60px;"">+</div>",null,fixation,NA,NA,NA,NA
NA,NA,NA,NA,NA,image-keyboard-response,39,207776,0.0-5.0-1.11,8,Study 8,Session 8,NA,null,img/encoding_events/Event_17.jpg,null,NA,NA,NA,NA,NA
NA,NA,NA,NA,NA,html-keyboard-response,40,209238,0.0-5.0-2.11,8,Study 8,Session 8,NA,1460,Please press the <strong><u>j</u></strong> key to continue,j,response,j,6000,TRUE,NA
NA,NA,NA,NA,NA,html-keyboard-response,41,209742,0.0-5.0-0.12,8,Study 8,Session 8,NA,null,"<div style=""font-size:60px;"">+</div>",null,fixation,NA,NA,NA,NA
NA,NA,NA,NA,NA,image-keyboard-response,42,215750,0.0-5.0-1.12,8,Study 8,Session 8,NA,null,img/encoding_events/Event_20.jpg,null,NA,NA,NA,NA,NA
NA,NA,NA,NA,NA,html-keyboard-response,43,215752,0.0-5.0-2.12,8,Study 8,Session 8,NA,null,Please press the <strong><u>s</u></strong> key to continue,null,response,s,0,FALSE,NA
NA,NA,NA,NA,NA,html-keyboard-response,44,216255,0.0-5.0-0.13,8,Study 8,Session 8,NA,null,"<div style=""font-size:60px;"">+</div>",null,fixation,NA,NA,NA,NA
NA,NA,NA,NA,NA,image-keyboard-response,45,222269,0.0-5.0-1.13,8,Study 8,Session 8,NA,null,img/encoding_events/Event_24.jpg,null,NA,NA,NA,NA,NA
NA,NA,NA,NA,NA,html-keyboard-response,46,222274,0.0-5.0-2.13,8,Study 8,Session 8,NA,null,Please press the <strong><u>a</u></strong> key to continue,null,response,a,0,FALSE,NA
NA,NA,NA,NA,NA,html-keyboard-response,47,222777,0.0-5.0-0.14,8,Study 8,Session 8,NA,null,"<div style=""font-size:60px;"">+</div>",null,fixation,NA,NA,NA,NA
NA,NA,NA,NA,NA,image-keyboard-response,48,228786,0.0-5.0-1.14,8,Study 8,Session 8,NA,null,img/encoding_events/Event_5.jpg,null,NA,NA,NA,NA,NA
NA,NA,NA,NA,NA,html-keyboard-response,49,228792,0.0-5.0-2.14,8,Study 8,Session 8,NA,null,Please press the <strong><u>a</u></strong> key to continue,null,response,a,0,FALSE,NA
NA,NA,NA,NA,NA,html-keyboard-response,50,229295,0.0-5.0-0.15,8,Study 8,Session 8,NA,null,"<div style=""font-size:60px;"">+</div>",null,fixation,NA,NA,NA,NA
NA,NA,NA,NA,NA,image-keyboard-response,51,235302,0.0-5.0-1.15,8,Study 8,Session 8,NA,null,img/encoding_events/Event_22.jpg,null,NA,NA,NA,NA,NA
NA,NA,NA,NA,NA,html-keyboard-response,52,236589,0.0-5.0-2.15,8,Study 8,Session 8,NA,1286,Please press the <strong><u>f</u></strong> key to continue,f,response,f,6000,TRUE,NA
NA,NA,NA,NA,NA,html-keyboard-response,53,237091,0.0-5.0-0.16,8,Study 8,Session 8,NA,null,"<div style=""font-size:60px;"">+</div>",null,fixation,NA,NA,NA,NA
NA,NA,NA,NA,NA,image-keyboard-response,54,243098,0.0-5.0-1.16,8,Study 8,Session 8,NA,null,img/encoding_events/Event_6.jpg,null,NA,NA,NA,NA,NA
NA,NA,NA,NA,NA,html-keyboard-response,55,243101,0.0-5.0-2.16,8,Study 8,Session 8,NA,null,Please press the <strong><u>d</u></strong> key to continue,null,response,d,0,FALSE,NA
NA,NA,NA,NA,NA,html-keyboard-response,56,243603,0.0-5.0-0.17,8,Study 8,Session 8,NA,null,"<div style=""font-size:60px;"">+</div>",null,fixation,NA,NA,NA,NA
NA,NA,NA,NA,NA,image-keyboard-response,57,249610,0.0-5.0-1.17,8,Study 8,Session 8,NA,null,img/encoding_events/Event_18.jpg,null,NA,NA,NA,NA,NA
NA,NA,NA,NA,NA,html-keyboard-response,58,249618,0.0-5.0-2.17,8,Study 8,Session 8,NA,null,Please press the <strong><u>k</u></strong> key to continue,null,response,k,0,FALSE,NA
NA,NA,NA,NA,NA,html-keyboard-response,59,250119,0.0-5.0-0.18,8,Study 8,Session 8,NA,null,"<div style=""font-size:60px;"">+</div>",null,fixation,NA,NA,NA,NA
NA,NA,NA,NA,NA,image-keyboard-response,60,256126,0.0-5.0-1.18,8,Study 8,Session 8,NA,null,img/encoding_events/Event_11.jpg,null,NA,NA,NA,NA,NA
NA,NA,NA,NA,NA,html-keyboard-response,61,256132,0.0-5.0-2.18,8,Study 8,Session 8,NA,null,Please press the <strong><u>f</u></strong> key to continue,null,response,f,0,FALSE,NA
NA,NA,NA,NA,NA,html-keyboard-response,62,256634,0.0-5.0-0.19,8,Study 8,Session 8,NA,null,"<div style=""font-size:60px;"">+</div>",null,fixation,NA,NA,NA,NA
NA,NA,NA,NA,NA,image-keyboard-response,63,262642,0.0-5.0-1.19,8,Study 8,Session 8,NA,null,img/encoding_events/Event_12.jpg,null,NA,NA,NA,NA,NA
NA,NA,NA,NA,NA,html-keyboard-response,64,264039,0.0-5.0-2.19,8,Study 8,Session 8,NA,1396,Please press the <strong><u>d</u></strong> key to continue,d,response,d,6000,TRUE,NA
NA,NA,NA,NA,NA,html-keyboard-response,65,264540,0.0-5.0-0.20,8,Study 8,Session 8,NA,null,"<div style=""font-size:60px;"">+</div>",null,fixation,NA,NA,NA,NA
NA,NA,NA,NA,NA,image-keyboard-response,66,270546,0.0-5.0-1.20,8,Study 8,Session 8,NA,null,img/encoding_events/Event_14.jpg,null,NA,NA,NA,NA,NA
NA,NA,NA,NA,NA,html-keyboard-response,67,270549,0.0-5.0-2.20,8,Study 8,Session 8,NA,null,Please press the <strong><u>k</u></strong> key to continue,null,response,k,0,FALSE,NA
NA,NA,NA,NA,NA,html-keyboard-response,68,271054,0.0-5.0-0.21,8,Study 8,Session 8,NA,null,"<div style=""font-size:60px;"">+</div>",null,fixation,NA,NA,NA,NA
NA,NA,NA,NA,NA,image-keyboard-response,69,277064,0.0-5.0-1.21,8,Study 8,Session 8,NA,null,img/encoding_events/Event_7.jpg,null,NA,NA,NA,NA,NA
NA,NA,NA,NA,NA,html-keyboard-response,70,277070,0.0-5.0-2.21,8,Study 8,Session 8,NA,null,Please press the <strong><u>s</u></strong> key to continue,null,response,s,0,FALSE,NA
NA,NA,NA,NA,NA,html-keyboard-response,71,277574,0.0-5.0-0.22,8,Study 8,Session 8,NA,null,"<div style=""font-size:60px;"">+</div>",null,fixation,NA,NA,NA,NA
NA,NA,NA,NA,NA,image-keyboard-response,72,283581,0.0-5.0-1.22,8,Study 8,Session 8,NA,null,img/encoding_events/Event_9.jpg,null,NA,NA,NA,NA,NA
NA,NA,NA,NA,NA,html-keyboard-response,73,283587,0.0-5.0-2.22,8,Study 8,Session 8,NA,null,Please press the <strong><u>d</u></strong> key to continue,null,response,d,0,FALSE,NA
NA,NA,NA,NA,NA,html-keyboard-response,74,284090,0.0-5.0-0.23,8,Study 8,Session 8,NA,null,"<div style=""font-size:60px;"">+</div>",null,fixation,NA,NA,NA,NA
NA,NA,NA,NA,NA,image-keyboard-response,75,290105,0.0-5.0-1.23,8,Study 8,Session 8,NA,null,img/encoding_events/Event_13.jpg,null,NA,NA,NA,NA,NA
NA,NA,NA,NA,NA,html-keyboard-response,76,291501,0.0-5.0-2.23,8,Study 8,Session 8,NA,1395,Please press the <strong><u>f</u></strong> key to continue,f,response,f,6000,TRUE,NA
NA,NA,NA,NA,NA,instructions,77,325710,0.0-6.0,8,Study 8,Session 8,"[{""page_index"":0,""viewing_time"":1389},{""page_index"":1,""viewing_time"":2569},{""page_index"":2,""viewing_time"":5608},{""page_index"":3,""viewing_time"":9793},{""page_index"":4,""viewing_time"":5338},{""page_index"":5,""viewing_time"":7259},{""page_index"":6,""viewing_time"":2252}]",34208,NA,NA,NA,NA,NA,NA,NA
NA,NA,NA,NA,NA,image-keyboard-response,78,331746,0.0-7.0-0.0-0.0,8,Study 8,Session 8,NA,3528,img/testing_events/Cb/Test_Cb_Event_16.jpg,u,response,e,NA,FALSE,Cb
NA,NA,NA,NA,NA,image-keyboard-response,79,334875,0.0-7.0-0.0-0.1,8,Study 8,Session 8,NA,3128,img/testing_events/Cb/Test_Cb_Event_22.jpg,n,response,c,NA,FALSE,Cb
NA,NA,NA,NA,NA,image-keyboard-response,80,337291,0.0-7.0-0.0-0.2,8,Study 8,Session 8,NA,2416,img/testing_events/Cb/Test_Cb_Event_3.jpg,n,response,n,NA,TRUE,Cb
NA,NA,NA,NA,NA,image-keyboard-response,81,338830,0.0-7.0-0.0-0.3,8,Study 8,Session 8,NA,1537,img/testing_events/Cb/Test_Cb_Event_4.jpg,e,response,e,NA,TRUE,Cb
NA,NA,NA,NA,NA,image-keyboard-response,82,341969,0.0-7.0-0.0-0.4,8,Study 8,Session 8,NA,3138,img/testing_events/Cb/Test_Cb_Event_23.jpg,u,response,n,NA,FALSE,Cb
NA,NA,NA,NA,NA,image-keyboard-response,83,343820,0.0-7.0-0.0-0.5,8,Study 8,Session 8,NA,1850,img/testing_events/Cb/Test_Cb_Event_18.jpg,c,response,c,NA,TRUE,Cb
NA,NA,NA,NA,NA,image-keyboard-response,84,347402,0.0-7.0-0.0-0.6,8,Study 8,Session 8,NA,3581,img/testing_events/Cb/Test_Cb_Event_19.jpg,u,response,n,NA,FALSE,Cb
NA,NA,NA,NA,NA,image-keyboard-response,85,349098,0.0-7.0-0.0-0.7,8,Study 8,Session 8,NA,1696,img/testing_events/Cb/Test_Cb_Event_11.jpg,n,response,n,NA,TRUE,Cb
NA,NA,NA,NA,NA,image-keyboard-response,86,351377,0.0-7.0-0.0-0.8,8,Study 8,Session 8,NA,2277,img/testing_events/Cb/Test_Cb_Event_2.jpg,u,response,c,NA,FALSE,Cb
NA,NA,NA,NA,NA,image-keyboard-response,87,353174,0.0-7.0-0.0-0.9,8,Study 8,Session 8,NA,1796,img/testing_events/Cb/Test_Cb_Event_15.jpg,n,response,n,NA,TRUE,Cb
NA,NA,NA,NA,NA,image-keyboard-response,88,354583,0.0-7.0-0.0-0.10,8,Study 8,Session 8,NA,1408,img/testing_events/Cb/Test_Cb_Event_1.jpg,u,response,u,NA,TRUE,Cb
NA,NA,NA,NA,NA,image-keyboard-response,89,356338,0.0-7.0-0.0-0.11,8,Study 8,Session 8,NA,1753,img/testing_events/Cb/Test_Cb_Event_5.jpg,c,response,u,NA,FALSE,Cb
NA,NA,NA,NA,NA,image-keyboard-response,90,358516,0.0-7.0-0.0-0.12,8,Study 8,Session 8,NA,2177,img/testing_events/Cb/Test_Cb_Event_9.jpg,e,response,u,NA,FALSE,Cb
NA,NA,NA,NA,NA,image-keyboard-response,91,360344,0.0-7.0-0.0-0.13,8,Study 8,Session 8,NA,1827,img/testing_events/Cb/Test_Cb_Event_7.jpg,e,response,n,NA,FALSE,Cb
NA,NA,NA,NA,NA,image-keyboard-response,92,362128,0.0-7.0-0.0-0.14,8,Study 8,Session 8,NA,1784,img/testing_events/Cb/Test_Cb_Event_14.jpg,c,response,c,NA,TRUE,Cb
NA,NA,NA,NA,NA,image-keyboard-response,93,364674,0.0-7.0-0.0-0.15,8,Study 8,Session 8,NA,2544,img/testing_events/Cb/Test_Cb_Event_17.jpg,u,response,u,NA,TRUE,Cb
NA,NA,NA,NA,NA,image-keyboard-response,94,366258,0.0-7.0-0.0-0.16,8,Study 8,Session 8,NA,1584,img/testing_events/Cb/Test_Cb_Event_24.jpg,e,response,e,NA,TRUE,Cb
NA,NA,NA,NA,NA,image-keyboard-response,95,368574,0.0-7.0-0.0-0.17,8,Study 8,Session 8,NA,2315,img/testing_events/Cb/Test_Cb_Event_8.jpg,n,response,e,NA,FALSE,Cb
NA,NA,NA,NA,NA,image-keyboard-response,96,370995,0.0-7.0-0.0-0.18,8,Study 8,Session 8,NA,2420,img/testing_events/Cb/Test_Cb_Event_20.jpg,e,response,e,NA,TRUE,Cb
NA,NA,NA,NA,NA,image-keyboard-response,97,373057,0.0-7.0-0.0-0.19,8,Study 8,Session 8,NA,2060,img/testing_events/Cb/Test_Cb_Event_13.jpg,u,response,u,NA,TRUE,Cb
NA,NA,NA,NA,NA,image-keyboard-response,98,375955,0.0-7.0-0.0-0.20,8,Study 8,Session 8,NA,2896,img/testing_events/Cb/Test_Cb_Event_21.jpg,c,response,u,NA,FALSE,Cb
NA,NA,NA,NA,NA,image-keyboard-response,99,377711,0.0-7.0-0.0-0.21,8,Study 8,Session 8,NA,1755,img/testing_events/Cb/Test_Cb_Event_6.jpg,n,response,c,NA,FALSE,Cb
NA,NA,NA,NA,NA,image-keyboard-response,100,380411,0.0-7.0-0.0-0.22,8,Study 8,Session 8,NA,2698,img/testing_events/Cb/Test_Cb_Event_10.jpg,u,response,c,NA,FALSE,Cb
NA,NA,NA,NA,NA,image-keyboard-response,101,382380,0.0-7.0-0.0-0.23,8,Study 8,Session 8,NA,1969,img/testing_events/Cb/Test_Cb_Event_12.jpg,e,response,e,NA,TRUE,Cb
NA,NA,NA,NA,NA,image-keyboard-response,102,385243,0.0-7.0-1.0-0.0,8,Study 8,Session 8,NA,2862,img/testing_events/Ca/Test_Ca_Event_16.jpg,n,response,n,NA,TRUE,Ca
NA,NA,NA,NA,NA,image-keyboard-response,103,387844,0.0-7.0-1.0-0.1,8,Study 8,Session 8,NA,2600,img/testing_events/Ca/Test_Ca_Event_2.jpg,u,response,u,NA,TRUE,Ca
NA,NA,NA,NA,NA,image-keyboard-response,104,390144,0.0-7.0-1.0-0.2,8,Study 8,Session 8,NA,2300,img/testing_events/Ca/Test_Ca_Event_1.jpg,n,response,e,NA,FALSE,Ca
NA,NA,NA,NA,NA,image-keyboard-response,105,392465,0.0-7.0-1.0-0.3,8,Study 8,Session 8,NA,2320,img/testing_events/Ca/Test_Ca_Event_11.jpg,n,response,c,NA,FALSE,Ca
NA,NA,NA,NA,NA,image-keyboard-response,106,394390,0.0-7.0-1.0-0.4,8,Study 8,Session 8,NA,1924,img/testing_events/Ca/Test_Ca_Event_21.jpg,c,response,e,NA,FALSE,Ca
NA,NA,NA,NA,NA,image-keyboard-response,107,396595,0.0-7.0-1.0-0.5,8,Study 8,Session 8,NA,2204,img/testing_events/Ca/Test_Ca_Event_22.jpg,e,response,u,NA,FALSE,Ca
NA,NA,NA,NA,NA,image-keyboard-response,108,398570,0.0-7.0-1.0-0.6,8,Study 8,Session 8,NA,1974,img/testing_events/Ca/Test_Ca_Event_19.jpg,e,response,c,NA,FALSE,Ca
NA,NA,NA,NA,NA,image-keyboard-response,109,401163,0.0-7.0-1.0-0.7,8,Study 8,Session 8,NA,2592,img/testing_events/Ca/Test_Ca_Event_8.jpg,n,response,n,NA,TRUE,Ca
NA,NA,NA,NA,NA,image-keyboard-response,110,402912,0.0-7.0-1.0-0.8,8,Study 8,Session 8,NA,1748,img/testing_events/Ca/Test_Ca_Event_7.jpg,u,response,c,NA,FALSE,Ca
NA,NA,NA,NA,NA,image-keyboard-response,111,404391,0.0-7.0-1.0-0.9,8,Study 8,Session 8,NA,1478,img/testing_events/Ca/Test_Ca_Event_24.jpg,u,response,n,NA,FALSE,Ca
NA,NA,NA,NA,NA,image-keyboard-response,112,405779,0.0-7.0-1.0-0.10,8,Study 8,Session 8,NA,1388,img/testing_events/Ca/Test_Ca_Event_18.jpg,u,response,u,NA,TRUE,Ca
NA,NA,NA,NA,NA,image-keyboard-response,113,406818,0.0-7.0-1.0-0.11,8,Study 8,Session 8,NA,1038,img/testing_events/Ca/Test_Ca_Event_12.jpg,c,response,n,NA,FALSE,Ca
NA,NA,NA,NA,NA,image-keyboard-response,114,408062,0.0-7.0-1.0-0.12,8,Study 8,Session 8,NA,1242,img/testing_events/Ca/Test_Ca_Event_5.jpg,e,response,e,NA,TRUE,Ca
NA,NA,NA,NA,NA,image-keyboard-response,115,409283,0.0-7.0-1.0-0.13,8,Study 8,Session 8,NA,1221,img/testing_events/Ca/Test_Ca_Event_9.jpg,c,response,e,NA,FALSE,Ca
NA,NA,NA,NA,NA,image-keyboard-response,116,411355,0.0-7.0-1.0-0.14,8,Study 8,Session 8,NA,2071,img/testing_events/Ca/Test_Ca_Event_10.jpg,u,response,u,NA,TRUE,Ca
NA,NA,NA,NA,NA,image-keyboard-response,117,412660,0.0-7.0-1.0-0.15,8,Study 8,Session 8,NA,1304,img/testing_events/Ca/Test_Ca_Event_17.jpg,n,response,e,NA,FALSE,Ca
NA,NA,NA,NA,NA,image-keyboard-response,118,413908,0.0-7.0-1.0-0.16,8,Study 8,Session 8,NA,1247,img/testing_events/Ca/Test_Ca_Event_14.jpg,c,response,u,NA,FALSE,Ca
NA,NA,NA,NA,NA,image-keyboard-response,119,415271,0.0-7.0-1.0-0.17,8,Study 8,Session 8,NA,1363,img/testing_events/Ca/Test_Ca_Event_6.jpg,e,response,u,NA,FALSE,Ca
NA,NA,NA,NA,NA,image-keyboard-response,120,417016,0.0-7.0-1.0-0.18,8,Study 8,Session 8,NA,1744,img/testing_events/Ca/Test_Ca_Event_4.jpg,e,response,n,NA,FALSE,Ca
NA,NA,NA,NA,NA,image-keyboard-response,121,418875,0.0-7.0-1.0-0.19,8,Study 8,Session 8,NA,1857,img/testing_events/Ca/Test_Ca_Event_20.jpg,e,response,n,NA,FALSE,Ca
NA,NA,NA,NA,NA,image-keyboard-response,122,420261,0.0-7.0-1.0-0.20,8,Study 8,Session 8,NA,1386,img/testing_events/Ca/Test_Ca_Event_13.jpg,c,response,e,NA,FALSE,Ca
NA,NA,NA,NA,NA,image-keyboard-response,123,421849,0.0-7.0-1.0-0.21,8,Study 8,Session 8,NA,1587,img/testing_events/Ca/Test_Ca_Event_15.jpg,c,response,c,NA,TRUE,Ca
NA,NA,NA,NA,NA,image-keyboard-response,124,423403,0.0-7.0-1.0-0.22,8,Study 8,Session 8,NA,1552,img/testing_events/Ca/Test_Ca_Event_23.jpg,u,response,c,NA,FALSE,Ca
NA,NA,NA,NA,NA,image-keyboard-response,125,425216,0.0-7.0-1.0-0.23,8,Study 8,Session 8,NA,1812,img/testing_events/Ca/Test_Ca_Event_3.jpg,u,response,c,NA,FALSE,Ca
NA,NA,NA,NA,NA,image-keyboard-response,126,427949,0.0-7.0-2.0-0.0,8,Study 8,Session 8,NA,2732,img/testing_events/Bc/Test_Bc_Event_13.jpg,u,response,n,NA,FALSE,Bc
NA,NA,NA,NA,NA,image-keyboard-response,127,430171,0.0-7.0-2.0-0.1,8,Study 8,Session 8,NA,2221,img/testing_events/Bc/Test_Bc_Event_10.jpg,u,response,e,NA,FALSE,Bc
NA,NA,NA,NA,NA,image-keyboard-response,128,431769,0.0-7.0-2.0-0.2,8,Study 8,Session 8,NA,1597,img/testing_events/Bc/Test_Bc_Event_18.jpg,u,response,e,NA,FALSE,Bc
NA,NA,NA,NA,NA,image-keyboard-response,129,433063,0.0-7.0-2.0-0.3,8,Study 8,Session 8,NA,1293,img/testing_events/Bc/Test_Bc_Event_15.jpg,n,response,u,NA,FALSE,Bc
NA,NA,NA,NA,NA,image-keyboard-response,130,434890,0.0-7.0-2.0-0.4,8,Study 8,Session 8,NA,1826,img/testing_events/Bc/Test_Bc_Event_14.jpg,e,response,e,NA,TRUE,Bc
NA,NA,NA,NA,NA,image-keyboard-response,131,436733,0.0-7.0-2.0-0.5,8,Study 8,Session 8,NA,1842,img/testing_events/Bc/Test_Bc_Event_16.jpg,c,response,c,NA,TRUE,Bc
NA,NA,NA,NA,NA,image-keyboard-response,132,437907,0.0-7.0-2.0-0.6,8,Study 8,Session 8,NA,1173,img/testing_events/Bc/Test_Bc_Event_24.jpg,c,response,c,NA,TRUE,Bc
NA,NA,NA,NA,NA,image-keyboard-response,133,440416,0.0-7.0-2.0-0.7,8,Study 8,Session 8,NA,2508,img/testing_events/Bc/Test_Bc_Event_20.jpg,u,response,c,NA,FALSE,Bc
NA,NA,NA,NA,NA,image-keyboard-response,134,442408,0.0-7.0-2.0-0.8,8,Study 8,Session 8,NA,1991,img/testing_events/Bc/Test_Bc_Event_8.jpg,n,response,c,NA,FALSE,Bc
NA,NA,NA,NA,NA,image-keyboard-response,135,443650,0.0-7.0-2.0-0.9,8,Study 8,Session 8,NA,1241,img/testing_events/Bc/Test_Bc_Event_9.jpg,u,response,n,NA,FALSE,Bc
NA,NA,NA,NA,NA,image-keyboard-response,136,445456,0.0-7.0-2.0-0.10,8,Study 8,Session 8,NA,1806,img/testing_events/Bc/Test_Bc_Event_5.jpg,c,response,n,NA,FALSE,Bc
NA,NA,NA,NA,NA,image-keyboard-response,137,446801,0.0-7.0-2.0-0.11,8,Study 8,Session 8,NA,1344,img/testing_events/Bc/Test_Bc_Event_23.jpg,u,response,u,NA,TRUE,Bc
NA,NA,NA,NA,NA,image-keyboard-response,138,448121,0.0-7.0-2.0-0.12,8,Study 8,Session 8,NA,1319,img/testing_events/Bc/Test_Bc_Event_7.jpg,e,response,u,NA,FALSE,Bc
NA,NA,NA,NA,NA,image-keyboard-response,139,450056,0.0-7.0-2.0-0.13,8,Study 8,Session 8,NA,1933,img/testing_events/Bc/Test_Bc_Event_3.jpg,e,response,u,NA,FALSE,Bc
NA,NA,NA,NA,NA,image-keyboard-response,140,451218,0.0-7.0-2.0-0.14,8,Study 8,Session 8,NA,1162,img/testing_events/Bc/Test_Bc_Event_17.jpg,e,response,n,NA,FALSE,Bc
NA,NA,NA,NA,NA,image-keyboard-response,141,453286,0.0-7.0-2.0-0.15,8,Study 8,Session 8,NA,2066,img/testing_events/Bc/Test_Bc_Event_6.jpg,n,response,e,NA,FALSE,Bc
NA,NA,NA,NA,NA,image-keyboard-response,142,454748,0.0-7.0-2.0-0.16,8,Study 8,Session 8,NA,1462,img/testing_events/Bc/Test_Bc_Event_11.jpg,e,response,u,NA,FALSE,Bc
NA,NA,NA,NA,NA,image-keyboard-response,143,456559,0.0-7.0-2.0-0.17,8,Study 8,Session 8,NA,1811,img/testing_events/Bc/Test_Bc_Event_4.jpg,e,response,c,NA,FALSE,Bc
NA,NA,NA,NA,NA,image-keyboard-response,144,458474,0.0-7.0-2.0-0.18,8,Study 8,Session 8,NA,1913,img/testing_events/Bc/Test_Bc_Event_22.jpg,e,response,e,NA,TRUE,Bc
NA,NA,NA,NA,NA,image-keyboard-response,145,460212,0.0-7.0-2.0-0.19,8,Study 8,Session 8,NA,1738,img/testing_events/Bc/Test_Bc_Event_12.jpg,e,response,c,NA,FALSE,Bc
NA,NA,NA,NA,NA,image-keyboard-response,146,462300,0.0-7.0-2.0-0.20,8,Study 8,Session 8,NA,2087,img/testing_events/Bc/Test_Bc_Event_1.jpg,n,response,n,NA,TRUE,Bc
NA,NA,NA,NA,NA,image-keyboard-response,147,463785,0.0-7.0-2.0-0.21,8,Study 8,Session 8,NA,1485,img/testing_events/Bc/Test_Bc_Event_19.jpg,n,response,u,NA,FALSE,Bc
NA,NA,NA,NA,NA,image-keyboard-response,148,465407,0.0-7.0-2.0-0.22,8,Study 8,Session 8,NA,1617,img/testing_events/Bc/Test_Bc_Event_2.jpg,e,response,e,NA,TRUE,Bc
NA,NA,NA,NA,NA,image-keyboard-response,149,467412,0.0-7.0-2.0-0.23,8,Study 8,Session 8,NA,2004,img/testing_events/Bc/Test_Bc_Event_21.jpg,u,response,n,NA,FALSE,Bc
NA,NA,NA,NA,NA,image-keyboard-response,150,470069,0.0-7.0-3.0-0.0,8,Study 8,Session 8,NA,2656,img/testing_events/Ab/Test_Ab_Event_12.jpg,u,response,n,NA,FALSE,Ab
NA,NA,NA,NA,NA,image-keyboard-response,151,471784,0.0-7.0-3.0-0.1,8,Study 8,Session 8,NA,1714,img/testing_events/Ab/Test_Ab_Event_19.jpg,n,response,c,NA,FALSE,Ab
NA,NA,NA,NA,NA,image-keyboard-response,152,473443,0.0-7.0-3.0-0.2,8,Study 8,Session 8,NA,1659,img/testing_events/Ab/Test_Ab_Event_10.jpg,n,response,u,NA,FALSE,Ab
NA,NA,NA,NA,NA,image-keyboard-response,153,475196,0.0-7.0-3.0-0.3,8,Study 8,Session 8,NA,1752,img/testing_events/Ab/Test_Ab_Event_23.jpg,u,response,c,NA,FALSE,Ab
NA,NA,NA,NA,NA,image-keyboard-response,154,477094,0.0-7.0-3.0-0.4,8,Study 8,Session 8,NA,1897,img/testing_events/Ab/Test_Ab_Event_2.jpg,n,response,u,NA,FALSE,Ab
NA,NA,NA,NA,NA,image-keyboard-response,155,478672,0.0-7.0-3.0-0.5,8,Study 8,Session 8,NA,1578,img/testing_events/Ab/Test_Ab_Event_7.jpg,c,response,c,NA,TRUE,Ab
NA,NA,NA,NA,NA,image-keyboard-response,156,480357,0.0-7.0-3.0-0.6,8,Study 8,Session 8,NA,1684,img/testing_events/Ab/Test_Ab_Event_17.jpg,e,response,e,NA,TRUE,Ab
NA,NA,NA,NA,NA,image-keyboard-response,157,481847,0.0-7.0-3.0-0.7,8,Study 8,Session 8,NA,1488,img/testing_events/Ab/Test_Ab_Event_13.jpg,c,response,e,NA,FALSE,Ab
NA,NA,NA,NA,NA,image-keyboard-response,158,483475,0.0-7.0-3.0-0.8,8,Study 8,Session 8,NA,1627,img/testing_events/Ab/Test_Ab_Event_16.jpg,n,response,n,NA,TRUE,Ab
NA,NA,NA,NA,NA,image-keyboard-response,159,485414,0.0-7.0-3.0-0.9,8,Study 8,Session 8,NA,1938,img/testing_events/Ab/Test_Ab_Event_11.jpg,u,response,c,NA,FALSE,Ab
NA,NA,NA,NA,NA,image-keyboard-response,160,487190,0.0-7.0-3.0-0.10,8,Study 8,Session 8,NA,1776,img/testing_events/Ab/Test_Ab_Event_6.jpg,e,response,u,NA,FALSE,Ab
NA,NA,NA,NA,NA,image-keyboard-response,161,488787,0.0-7.0-3.0-0.11,8,Study 8,Session 8,NA,1596,img/testing_events/Ab/Test_Ab_Event_5.jpg,c,response,e,NA,FALSE,Ab
NA,NA,NA,NA,NA,image-keyboard-response,162,490334,0.0-7.0-3.0-0.12,8,Study 8,Session 8,NA,1545,img/testing_events/Ab/Test_Ab_Event_9.jpg,n,response,e,NA,FALSE,Ab
NA,NA,NA,NA,NA,image-keyboard-response,163,491707,0.0-7.0-3.0-0.13,8,Study 8,Session 8,NA,1372,img/testing_events/Ab/Test_Ab_Event_14.jpg,n,response,u,NA,FALSE,Ab
NA,NA,NA,NA,NA,image-keyboard-response,164,493142,0.0-7.0-3.0-0.14,8,Study 8,Session 8,NA,1434,img/testing_events/Ab/Test_Ab_Event_20.jpg,u,response,n,NA,FALSE,Ab
NA,NA,NA,NA,NA,image-keyboard-response,165,494612,0.0-7.0-3.0-0.15,8,Study 8,Session 8,NA,1469,img/testing_events/Ab/Test_Ab_Event_24.jpg,n,response,n,NA,TRUE,Ab
NA,NA,NA,NA,NA,image-keyboard-response,166,495917,0.0-7.0-3.0-0.16,8,Study 8,Session 8,NA,1304,img/testing_events/Ab/Test_Ab_Event_18.jpg,c,response,u,NA,FALSE,Ab
NA,NA,NA,NA,NA,image-keyboard-response,167,497417,0.0-7.0-3.0-0.17,8,Study 8,Session 8,NA,1499,img/testing_events/Ab/Test_Ab_Event_15.jpg,e,response,c,NA,FALSE,Ab
NA,NA,NA,NA,NA,image-keyboard-response,168,498973,0.0-7.0-3.0-0.18,8,Study 8,Session 8,NA,1556,img/testing_events/Ab/Test_Ab_Event_3.jpg,e,response,c,NA,FALSE,Ab
NA,NA,NA,NA,NA,image-keyboard-response,169,500863,0.0-7.0-3.0-0.19,8,Study 8,Session 8,NA,1889,img/testing_events/Ab/Test_Ab_Event_4.jpg,c,response,n,NA,FALSE,Ab
NA,NA,NA,NA,NA,image-keyboard-response,170,502442,0.0-7.0-3.0-0.20,8,Study 8,Session 8,NA,1577,img/testing_events/Ab/Test_Ab_Event_21.jpg,e,response,e,NA,TRUE,Ab
NA,NA,NA,NA,NA,image-keyboard-response,171,504101,0.0-7.0-3.0-0.21,8,Study 8,Session 8,NA,1658,img/testing_events/Ab/Test_Ab_Event_22.jpg,u,response,u,NA,TRUE,Ab
NA,NA,NA,NA,NA,image-keyboard-response,172,505891,0.0-7.0-3.0-0.22,8,Study 8,Session 8,NA,1790,img/testing_events/Ab/Test_Ab_Event_1.jpg,e,response,e,NA,TRUE,Ab
NA,NA,NA,NA,NA,image-keyboard-response,173,508307,0.0-7.0-3.0-0.23,8,Study 8,Session 8,NA,2415,img/testing_events/Ab/Test_Ab_Event_8.jpg,u,response,n,NA,FALSE,Ab
NA,NA,NA,NA,NA,image-keyboard-response,174,510660,0.0-7.0-4.0-0.0,8,Study 8,Session 8,NA,2352,img/testing_events/Ba/Test_Ba_Event_15.jpg,n,response,e,NA,FALSE,Ba
NA,NA,NA,NA,NA,image-keyboard-response,175,512302,0.0-7.0-4.0-0.1,8,Study 8,Session 8,NA,1640,img/testing_events/Ba/Test_Ba_Event_22.jpg,u,response,n,NA,FALSE,Ba
NA,NA,NA,NA,NA,image-keyboard-response,176,512947,0.0-7.0-4.0-0.2,8,Study 8,Session 8,NA,645,img/testing_events/Ba/Test_Ba_Event_7.jpg,e,response,e,NA,TRUE,Ba
NA,NA,NA,NA,NA,image-keyboard-response,177,514336,0.0-7.0-4.0-0.3,8,Study 8,Session 8,NA,1388,img/testing_events/Ba/Test_Ba_Event_6.jpg,u,response,n,NA,FALSE,Ba
NA,NA,NA,NA,NA,image-keyboard-response,178,516071,0.0-7.0-4.0-0.4,8,Study 8,Session 8,NA,1735,img/testing_events/Ba/Test_Ba_Event_18.jpg,u,response,n,NA,FALSE,Ba
NA,NA,NA,NA,NA,image-keyboard-response,179,517674,0.0-7.0-4.0-0.5,8,Study 8,Session 8,NA,1602,img/testing_events/Ba/Test_Ba_Event_5.jpg,u,response,c,NA,FALSE,Ba
NA,NA,NA,NA,NA,image-keyboard-response,180,518833,0.0-7.0-4.0-0.6,8,Study 8,Session 8,NA,1158,img/testing_events/Ba/Test_Ba_Event_23.jpg,n,response,e,NA,FALSE,Ba
NA,NA,NA,NA,NA,image-keyboard-response,181,520206,0.0-7.0-4.0-0.7,8,Study 8,Session 8,NA,1372,img/testing_events/Ba/Test_Ba_Event_11.jpg,c,response,e,NA,FALSE,Ba
NA,NA,NA,NA,NA,image-keyboard-response,182,521887,0.0-7.0-4.0-0.8,8,Study 8,Session 8,NA,1680,img/testing_events/Ba/Test_Ba_Event_17.jpg,e,response,c,NA,FALSE,Ba
NA,NA,NA,NA,NA,image-keyboard-response,183,523449,0.0-7.0-4.0-0.9,8,Study 8,Session 8,NA,1561,img/testing_events/Ba/Test_Ba_Event_20.jpg,e,response,u,NA,FALSE,Ba
NA,NA,NA,NA,NA,image-keyboard-response,184,525275,0.0-7.0-4.0-0.10,8,Study 8,Session 8,NA,1825,img/testing_events/Ba/Test_Ba_Event_12.jpg,e,response,u,NA,FALSE,Ba
NA,NA,NA,NA,NA,image-keyboard-response,185,526560,0.0-7.0-4.0-0.11,8,Study 8,Session 8,NA,1285,img/testing_events/Ba/Test_Ba_Event_4.jpg,e,response,u,NA,FALSE,Ba
NA,NA,NA,NA,NA,image-keyboard-response,186,528126,0.0-7.0-4.0-0.12,8,Study 8,Session 8,NA,1565,img/testing_events/Ba/Test_Ba_Event_1.jpg,n,response,c,NA,FALSE,Ba
NA,NA,NA,NA,NA,image-keyboard-response,187,529687,0.0-7.0-4.0-0.13,8,Study 8,Session 8,NA,1560,img/testing_events/Ba/Test_Ba_Event_10.jpg,u,response,n,NA,FALSE,Ba
NA,NA,NA,NA,NA,image-keyboard-response,188,531628,0.0-7.0-4.0-0.14,8,Study 8,Session 8,NA,1941,img/testing_events/Ba/Test_Ba_Event_2.jpg,u,response,n,NA,FALSE,Ba
NA,NA,NA,NA,NA,image-keyboard-response,189,533006,0.0-7.0-4.0-0.15,8,Study 8,Session 8,NA,1377,img/testing_events/Ba/Test_Ba_Event_21.jpg,e,response,c,NA,FALSE,Ba
NA,NA,NA,NA,NA,image-keyboard-response,190,534110,0.0-7.0-4.0-0.16,8,Study 8,Session 8,NA,1103,img/testing_events/Ba/Test_Ba_Event_14.jpg,e,response,n,NA,FALSE,Ba
NA,NA,NA,NA,NA,image-keyboard-response,191,535441,0.0-7.0-4.0-0.17,8,Study 8,Session 8,NA,1330,img/testing_events/Ba/Test_Ba_Event_13.jpg,n,response,c,NA,FALSE,Ba
NA,NA,NA,NA,NA,image-keyboard-response,192,536863,0.0-7.0-4.0-0.18,8,Study 8,Session 8,NA,1422,img/testing_events/Ba/Test_Ba_Event_3.jpg,n,response,e,NA,FALSE,Ba
NA,NA,NA,NA,NA,image-keyboard-response,193,538312,0.0-7.0-4.0-0.19,8,Study 8,Session 8,NA,1448,img/testing_events/Ba/Test_Ba_Event_8.jpg,u,response,u,NA,TRUE,Ba
NA,NA,NA,NA,NA,image-keyboard-response,194,540512,0.0-7.0-4.0-0.20,8,Study 8,Session 8,NA,2199,img/testing_events/Ba/Test_Ba_Event_24.jpg,n,response,u,NA,FALSE,Ba
NA,NA,NA,NA,NA,image-keyboard-response,195,541766,0.0-7.0-4.0-0.21,8,Study 8,Session 8,NA,1253,img/testing_events/Ba/Test_Ba_Event_19.jpg,e,response,e,NA,TRUE,Ba
NA,NA,NA,NA,NA,image-keyboard-response,196,543142,0.0-7.0-4.0-0.22,8,Study 8,Session 8,NA,1376,img/testing_events/Ba/Test_Ba_Event_9.jpg,n,response,c,NA,FALSE,Ba
NA,NA,NA,NA,NA,image-keyboard-response,197,544711,0.0-7.0-4.0-0.23,8,Study 8,Session 8,NA,1568,img/testing_events/Ba/Test_Ba_Event_16.jpg,c,response,u,NA,FALSE,Ba
NA,NA,NA,NA,NA,image-keyboard-response,198,546158,0.0-7.0-5.0-0.0,8,Study 8,Session 8,NA,1447,img/testing_events/Ac/Test_Ac_Event_21.jpg,e,response,u,NA,FALSE,Ac
NA,NA,NA,NA,NA,image-keyboard-response,199,547755,0.0-7.0-5.0-0.1,8,Study 8,Session 8,NA,1596,img/testing_events/Ac/Test_Ac_Event_1.jpg,u,response,u,NA,TRUE,Ac
NA,NA,NA,NA,NA,image-keyboard-response,200,549216,0.0-7.0-5.0-0.2,8,Study 8,Session 8,NA,1461,img/testing_events/Ac/Test_Ac_Event_24.jpg,n,response,e,NA,FALSE,Ac
NA,NA,NA,NA,NA,image-keyboard-response,201,550211,0.0-7.0-5.0-0.3,8,Study 8,Session 8,NA,994,img/testing_events/Ac/Test_Ac_Event_16.jpg,c,response,e,NA,FALSE,Ac
NA,NA,NA,NA,NA,image-keyboard-response,202,551486,0.0-7.0-5.0-0.4,8,Study 8,Session 8,NA,1274,img/testing_events/Ac/Test_Ac_Event_10.jpg,c,response,c,NA,TRUE,Ac
NA,NA,NA,NA,NA,image-keyboard-response,203,552851,0.0-7.0-5.0-0.5,8,Study 8,Session 8,NA,1365,img/testing_events/Ac/Test_Ac_Event_15.jpg,n,response,n,NA,TRUE,Ac
NA,NA,NA,NA,NA,image-keyboard-response,204,553854,0.0-7.0-5.0-0.6,8,Study 8,Session 8,NA,1002,img/testing_events/Ac/Test_Ac_Event_7.jpg,e,response,n,NA,FALSE,Ac
NA,NA,NA,NA,NA,image-keyboard-response,205,555382,0.0-7.0-5.0-0.7,8,Study 8,Session 8,NA,1527,img/testing_events/Ac/Test_Ac_Event_14.jpg,n,response,c,NA,FALSE,Ac
NA,NA,NA,NA,NA,image-keyboard-response,206,556544,0.0-7.0-5.0-0.8,8,Study 8,Session 8,NA,1161,img/testing_events/Ac/Test_Ac_Event_6.jpg,u,response,c,NA,FALSE,Ac
NA,NA,NA,NA,NA,image-keyboard-response,207,557676,0.0-7.0-5.0-0.9,8,Study 8,Session 8,NA,1131,img/testing_events/Ac/Test_Ac_Event_2.jpg,n,response,c,NA,FALSE,Ac
NA,NA,NA,NA,NA,image-keyboard-response,208,559360,0.0-7.0-5.0-0.10,8,Study 8,Session 8,NA,1683,img/testing_events/Ac/Test_Ac_Event_17.jpg,e,response,u,NA,FALSE,Ac
NA,NA,NA,NA,NA,image-keyboard-response,209,560621,0.0-7.0-5.0-0.11,8,Study 8,Session 8,NA,1260,img/testing_events/Ac/Test_Ac_Event_13.jpg,e,response,u,NA,FALSE,Ac
NA,NA,NA,NA,NA,image-keyboard-response,210,561670,0.0-7.0-5.0-0.12,8,Study 8,Session 8,NA,1048,img/testing_events/Ac/Test_Ac_Event_23.jpg,c,response,n,NA,FALSE,Ac
NA,NA,NA,NA,NA,image-keyboard-response,211,562880,0.0-7.0-5.0-0.13,8,Study 8,Session 8,NA,1209,img/testing_events/Ac/Test_Ac_Event_3.jpg,c,response,n,NA,FALSE,Ac
NA,NA,NA,NA,NA,image-keyboard-response,212,563608,0.0-7.0-5.0-0.14,8,Study 8,Session 8,NA,728,img/testing_events/Ac/Test_Ac_Event_19.jpg,n,response,n,NA,TRUE,Ac
NA,NA,NA,NA,NA,image-keyboard-response,213,565190,0.0-7.0-5.0-0.15,8,Study 8,Session 8,NA,1580,img/testing_events/Ac/Test_Ac_Event_8.jpg,u,response,e,NA,FALSE,Ac
NA,NA,NA,NA,NA,image-keyboard-response,214,566977,0.0-7.0-5.0-0.16,8,Study 8,Session 8,NA,1787,img/testing_events/Ac/Test_Ac_Event_4.jpg,n,response,e,NA,FALSE,Ac
NA,NA,NA,NA,NA,image-keyboard-response,215,567650,0.0-7.0-5.0-0.17,8,Study 8,Session 8,NA,672,img/testing_events/Ac/Test_Ac_Event_18.jpg,e,response,c,NA,FALSE,Ac
NA,NA,NA,NA,NA,image-keyboard-response,216,569333,0.0-7.0-5.0-0.18,8,Study 8,Session 8,NA,1682,img/testing_events/Ac/Test_Ac_Event_5.jpg,u,response,u,NA,TRUE,Ac
NA,NA,NA,NA,NA,image-keyboard-response,217,570584,0.0-7.0-5.0-0.19,8,Study 8,Session 8,NA,1250,img/testing_events/Ac/Test_Ac_Event_22.jpg,u,response,c,NA,FALSE,Ac
NA,NA,NA,NA,NA,image-keyboard-response,218,572530,0.0-7.0-5.0-0.20,8,Study 8,Session 8,NA,1945,img/testing_events/Ac/Test_Ac_Event_12.jpg,n,response,e,NA,FALSE,Ac
NA,NA,NA,NA,NA,image-keyboard-response,219,574018,0.0-7.0-5.0-0.21,8,Study 8,Session 8,NA,1487,img/testing_events/Ac/Test_Ac_Event_20.jpg,n,response,e,NA,FALSE,Ac
NA,NA,NA,NA,NA,image-keyboard-response,220,575358,0.0-7.0-5.0-0.22,8,Study 8,Session 8,NA,1340,img/testing_events/Ac/Test_Ac_Event_11.jpg,n,response,n,NA,TRUE,Ac
NA,NA,NA,NA,NA,image-keyboard-response,221,577278,0.0-7.0-5.0-0.23,8,Study 8,Session 8,NA,1919,img/testing_events/Ac/Test_Ac_Event_9.jpg,n,response,u,NA,FALSE,Ac
NA,NA,NA,NA,NA,survey-text,222,585671,0.0-8.0,8,Study 8,Session 8,NA,8381,NA,"{""Q0"":""No"",""Q1"":""No"",""Q2"":""No""}",NA,NA,NA,NA,NA
NA,NA,NA,NA,NA,survey-html-form,223,612080,0.0-9.0,8,Study 8,Session 8,NA,26408,NA,"{""Gender"":""Female"",""Age"":""26"",""ColorBlind"":""No"",""Education"":""Bachelors degree"",""Income"":""$150,000+"",""Race"":""White"",""Fluent"":""Yes"",""AgeEnglish"":""0"",""Country"":""United States""}",NA,NA,NA,NA,NA
TRUE,NA,NA,NA,NA,fullscreen,224,612081,0.0-10.0,8,Study 8,Session 8,NA,NA,NA,NA,NA,NA,NA,NA,NA
